Wavelength (Angstroms) Flux (erg/s/cm2/A)
# start
3400.00 0
3401.50 0
3403.00 0
3404.50 0
3406.00 0
3407.50 0
3409.00 0
3410.50 0
3412.00 0
3413.50 0
3415.00 0
3416.50 0
3418.00 0
3419.50 0
3421.00 0
3422.50 0
3424.00 0
3425.50 0
3427.00 0
3428.50 0
3430.00 0
3431.50 0
3433.00 0
3434.50 0
3436.00 0
3437.50 0
3439.00 0
3440.50 0
3442.00 0
3443.50 0
3445.00 0
3446.50 0
3448.00 0
3449.50 0
3451.00 0
3452.50 0
3454.00 0
3455.50 0
3457.00 0
3458.50 0
3460.00 0
3461.50 0
3463.00 0
3464.50 0
3466.00 0
3467.50 0
3469.00 0
3470.50 0
3472.00 0
3473.50 0
3475.00 0
3476.50 0
3478.00 0
3479.50 0
3481.00 0
3482.50 0
3484.00 0
3485.50 0
3487.00 0
3488.50 0
3490.00 0
3491.50 0
3493.00 0
3494.50 0
3496.00 0
3497.50 0
3499.00 0
3500.50 0
3502.00 0
3503.50 0
3505.00 0
3506.50 0
3508.00 0
3509.50 0
3511.00 0
3512.50 0
3514.00 0
3515.50 0
3517.00 0
3518.50 0
3520.00 0
3521.50 0
3523.00 0
3524.50 0
3526.00 0
3527.50 0
3529.00 0
3530.50 0
3532.00 0
3533.50 0
3535.00 0
3536.50 0
3538.00 0
3539.50 0
3541.00 0
3542.50 0
3544.00 0
3545.50 0
3547.00 0
3548.50 0
3550.00 0
3551.50 0
3553.00 0
3554.50 0
3556.00 0
3557.50 0
3559.00 0
3560.50 0
3562.00 0
3563.50 0
3565.00 0
3566.50 0
3568.00 0
3569.50 0
3571.00 0
3572.50 0
3574.00 0
3575.50 0
3577.00 0
3578.50 0
3580.00 0
3581.50 0
3583.00 0
3584.50 0
3586.00 0
3587.50 0
3589.00 0
3590.50 0
3592.00 0
3593.50 0
3595.00 0
3596.50 0
3598.00 0
3599.50 0
3601.00 0
3602.50 0
3604.00 0
3605.50 0
3607.00 0
3608.50 0
3610.00 0
3611.50 0
3613.00 0
3614.50 0
3616.00 0
3617.50 0
3619.00 0
3620.50 0
3622.00 0
3623.50 0
3625.00 0
3626.50 0
3628.00 0
3629.50 0
3631.00 0
3632.50 0
3634.00 0
3635.50 0
3637.00 0
3638.50 0
3640.00 0
3641.50 0
3643.00 0
3644.50 0
3646.00 0
3647.50 0
3649.00 0
3650.50 0
3652.00 0
3653.50 0
3655.00 0
3656.50 0
3658.00 0
3659.50 0
3661.00 0
3662.50 0
3664.00 0
3665.50 0
3667.00 0
3668.50 0
3670.00 0
3671.50 0
3673.00 0
3674.50 0
3676.00 0
3677.50 0
3679.00 0
3680.50 0
3682.00 0
3683.50 0
3685.00 0
3686.50 0
3688.00 0
3689.50 0
3691.00 0
3692.50 0
3694.00 0
3695.50 0
3697.00 0
3698.50 0
3700.00 0
3701.50 0
3703.00 0
3704.50 0
3706.00 0
3707.50 0
3709.00 0
3710.50 0
3712.00 0
3713.50 0
3715.00 0
3716.50 0
3718.00 0
3719.50 0
3721.00 0
3722.50 0
3724.00 0
3725.50 0
3727.00 0
3728.50 0
3730.00 0
3731.50 0
3733.00 0
3734.50 0
3736.00 0
3737.50 0
3739.00 0
3740.50 0
3742.00 0
3743.50 0
3745.00 0
3746.50 0
3748.00 0
3749.50 0
3751.00 0
3752.50 0
3754.00 0
3755.50 0
3757.00 0
3758.50 0
3760.00 0
3761.50 0
3763.00 0
3764.50 0
3766.00 0
3767.50 0
3769.00 0
3770.50 0
3772.00 0
3773.50 0
3775.00 0
3776.50 0
3778.00 0
3779.50 0
3781.00 0
3782.50 0
3784.00 0
3785.50 0
3787.00 0
3788.50 0
3790.00 0
3791.50 0
3793.00 0
3794.50 0
3796.00 0
3797.50 2.4629e-16 
3799.00 2.4625e-16 
3800.50 2.4622e-16 
3802.00 2.4619e-16 
3803.50 2.4616e-16 
3805.00 2.4612e-16 
3806.50 2.4609e-16 
3808.00 2.4606e-16 
3809.50 2.6390e-16 
3811.00 2.4306e-16 
3812.50 2.3309e-16 
3814.00 2.3694e-16 
3815.50 2.0232e-16 
3817.00 1.9270e-16 
3818.50 2.2702e-16 
3820.00 1.9933e-16 
3821.50 1.9332e-16 
3823.00 1.7681e-16 
3824.50 2.1961e-16 
3826.00 2.2151e-16 
3827.50 1.8585e-16 
3829.00 1.8390e-16 
3830.50 1.9713e-16 
3832.00 1.5290e-16 
3833.50 1.8969e-16 
3835.00 2.1025e-16 
3836.50 1.6792e-16 
3838.00 1.9342e-16 
3839.50 1.8685e-16 
3841.00 1.6817e-16 
3842.50 1.6979e-16 
3844.00 1.9562e-16 
3845.50 1.9034e-16 
3847.00 1.8558e-16 
3848.50 2.0393e-16 
3850.00 1.7203e-16 
3851.50 1.5116e-16 
3853.00 1.3357e-16 
3854.50 1.0146e-16 
3856.00 1.8980e-16 
3857.50 2.0177e-16 
3859.00 1.7952e-16 
3860.50 1.7636e-16 
3862.00 2.1968e-16 
3863.50 2.0730e-16 
3865.00 1.6489e-16 
3866.50 1.1765e-16 
3868.00 1.9403e-16 
3869.50 1.6733e-16 
3871.00 2.1916e-16 
3872.50 1.4339e-16 
3874.00 1.6241e-16 
3875.50 1.7509e-16 
3877.00 1.5570e-16 
3878.50 1.8444e-16 
3880.00 2.0706e-16 
3881.50 1.4498e-16 
3883.00 1.4176e-16 
3884.50 7.9363e-17 
3886.00 4.9142e-17 
3887.50 7.7940e-17 
3889.00 1.9078e-16 
3890.50 1.7019e-16 
3892.00 1.7739e-16 
3893.50 1.4744e-16 
3895.00 1.9228e-16 
3896.50 1.7752e-16 
3898.00 1.5493e-16 
3899.50 1.9929e-16 
3901.00 1.6424e-16 
3902.50 1.3524e-16 
3904.00 1.8065e-16 
3905.50 1.7635e-16 
3907.00 1.4455e-16 
3908.50 1.7135e-16 
3910.00 1.5458e-16 
3911.50 1.3137e-16 
3913.00 1.4980e-16 
3914.50 1.6319e-16 
3916.00 1.5806e-16 
3917.50 1.9745e-16 
3919.00 1.3747e-16 
3920.50 1.1484e-16 
3922.00 1.4291e-16 
3923.50 1.4784e-16 
3925.00 1.3917e-16 
3926.50 1.3134e-16 
3928.00 1.5204e-16 
3929.50 1.3845e-16 
3931.00 1.3044e-16 
3932.50 1.0599e-16 
3934.00 1.1762e-16 
3935.50 1.2718e-16 
3937.00 1.4857e-16 
3938.50 1.0874e-16 
3940.00 1.1001e-16 
3941.50 1.0088e-16 
3943.00 1.4349e-16 
3944.50 1.4643e-16 
3946.00 1.4349e-16 
3947.50 1.3973e-16 
3949.00 1.2384e-16 
3950.50 1.3227e-16 
3952.00 1.3098e-16 
3953.50 1.0584e-16 
3955.00 1.3731e-16 
3956.50 1.3194e-16 
3958.00 1.0918e-16 
3959.50 9.2353e-17 
3961.00 1.3912e-16 
3962.50 1.3960e-16 
3964.00 1.2269e-16 
3965.50 1.2961e-16 
3967.00 1.4980e-16 
3968.50 1.3261e-16 
3970.00 1.2909e-16 
3971.50 9.7905e-17 
3973.00 1.4308e-16 
3974.50 1.4407e-16 
3976.00 1.5700e-16 
3977.50 1.2322e-16 
3979.00 1.1326e-16 
3980.50 1.2588e-16 
3982.00 1.2711e-16 
3983.50 1.3862e-16 
3985.00 1.4080e-16 
3986.50 1.0491e-16 
3988.00 1.3001e-16 
3989.50 1.0910e-16 
3991.00 1.1274e-16 
3992.50 9.4126e-17 
3994.00 1.1500e-16 
3995.50 1.1796e-16 
3997.00 1.2548e-16 
3998.50 1.4477e-16 
4000.00 1.2655e-16 
4001.50 1.1454e-16 
4003.00 1.2664e-16 
4004.50 1.2129e-16 
4006.00 1.1355e-16 
4007.50 1.2908e-16 
4009.00 1.1385e-16 
4010.50 1.1667e-16 
4012.00 1.3919e-16 
4013.50 1.3640e-16 
4015.00 1.1565e-16 
4016.50 1.0318e-16 
4018.00 1.1877e-16 
4019.50 1.4945e-16 
4021.00 9.4487e-17 
4022.50 1.0451e-16 
4024.00 1.0469e-16 
4025.50 1.0771e-16 
4027.00 9.8974e-17 
4028.50 1.1165e-16 
4030.00 9.4369e-17 
4031.50 1.2393e-16 
4033.00 1.2425e-16 
4034.50 1.0382e-16 
4036.00 1.1615e-16 
4037.50 1.2518e-16 
4039.00 1.1546e-16 
4040.50 1.1744e-16 
4042.00 1.4024e-16 
4043.50 1.3734e-16 
4045.00 1.2768e-16 
4046.50 1.0523e-16 
4048.00 1.5592e-16 
4049.50 1.0811e-16 
4051.00 1.0098e-16 
4052.50 1.5828e-16 
4054.00 1.6287e-16 
4055.50 9.7250e-17 
4057.00 1.0868e-16 
4058.50 6.2870e-17 
4060.00 9.3983e-17 
4061.50 1.1304e-16 
4063.00 1.2696e-16 
4064.50 1.0794e-16 
4066.00 1.0432e-16 
4067.50 1.0407e-16 
4069.00 1.2882e-16 
4070.50 1.0206e-16 
4072.00 1.0921e-16 
4073.50 1.1202e-16 
4075.00 1.0739e-16 
4076.50 1.3323e-16 
4078.00 1.2128e-16 
4079.50 1.2379e-16 
4081.00 1.2127e-16 
4082.50 1.0359e-16 
4084.00 6.4338e-17 
4085.50 9.0883e-17 
4087.00 1.2323e-16 
4088.50 1.2550e-16 
4090.00 1.3124e-16 
4091.50 1.0480e-16 
4093.00 9.9984e-17 
4094.50 1.4079e-16 
4096.00 1.2639e-16 
4097.50 1.1709e-16 
4099.00 1.1582e-16 
4100.50 1.1825e-16 
4102.00 1.1275e-16 
4103.50 1.4235e-16 
4105.00 1.2976e-16 
4106.50 1.1514e-16 
4108.00 1.0596e-16 
4109.50 1.1942e-16 
4111.00 1.0930e-16 
4112.50 1.1476e-16 
4114.00 9.3024e-17 
4115.50 9.9306e-17 
4117.00 1.0566e-16 
4118.50 1.2205e-16 
4120.00 1.1528e-16 
4121.50 1.0644e-16 
4123.00 1.1001e-16 
4124.50 1.2154e-16 
4126.00 1.0306e-16 
4127.50 1.0732e-16 
4129.00 1.1396e-16 
4130.50 1.1142e-16 
4132.00 1.0274e-16 
4133.50 1.1617e-16 
4135.00 1.0945e-16 
4136.50 1.2466e-16 
4138.00 1.0971e-16 
4139.50 8.1802e-17 
4141.00 7.7230e-17 
4142.50 1.1073e-16 
4144.00 1.3000e-16 
4145.50 1.1648e-16 
4147.00 1.0847e-16 
4148.50 1.2930e-16 
4150.00 8.4349e-17 
4151.50 1.1972e-16 
4153.00 1.3864e-16 
4154.50 1.0473e-16 
4156.00 1.1161e-16 
4157.50 1.1477e-16 
4159.00 9.9240e-17 
4160.50 9.2716e-17 
4162.00 1.1395e-16 
4163.50 1.1549e-16 
4165.00 1.1025e-16 
4166.50 1.0304e-16 
4168.00 1.0202e-16 
4169.50 1.0317e-16 
4171.00 1.1440e-16 
4172.50 1.1065e-16 
4174.00 1.2536e-16 
4175.50 1.1495e-16 
4177.00 1.0451e-16 
4178.50 1.1978e-16 
4180.00 1.0035e-16 
4181.50 1.1281e-16 
4183.00 1.0372e-16 
4184.50 1.2035e-16 
4186.00 1.0853e-16 
4187.50 1.0958e-16 
4189.00 1.2567e-16 
4190.50 1.2829e-16 
4192.00 1.2307e-16 
4193.50 1.3784e-16 
4195.00 1.2893e-16 
4196.50 1.4533e-16 
4198.00 1.0490e-16 
4199.50 1.0963e-16 
4201.00 1.0268e-16 
4202.50 1.1272e-16 
4204.00 1.4009e-16 
4205.50 1.1153e-16 
4207.00 9.8525e-17 
4208.50 7.9034e-17 
4210.00 1.3348e-16 
4211.50 1.0611e-16 
4213.00 1.1449e-16 
4214.50 1.2377e-16 
4216.00 9.7140e-17 
4217.50 1.0871e-16 
4219.00 1.1645e-16 
4220.50 1.0145e-16 
4222.00 1.1360e-16 
4223.50 1.1009e-16 
4225.00 1.2203e-16 
4226.50 1.2924e-16 
4228.00 1.1026e-16 
4229.50 1.3347e-16 
4231.00 1.1048e-16 
4232.50 1.0308e-16 
4234.00 1.3020e-16 
4235.50 9.4416e-17 
4237.00 1.1442e-16 
4238.50 1.2018e-16 
4240.00 1.2154e-16 
4241.50 1.3726e-16 
4243.00 1.1228e-16 
4244.50 1.3106e-16 
4246.00 1.1880e-16 
4247.50 1.1737e-16 
4249.00 1.2292e-16 
4250.50 1.1204e-16 
4252.00 1.1742e-16 
4253.50 1.3586e-16 
4255.00 1.0883e-16 
4256.50 1.2771e-16 
4258.00 1.2786e-16 
4259.50 1.2264e-16 
4261.00 1.2684e-16 
4262.50 1.1532e-16 
4264.00 1.3872e-16 
4265.50 1.2860e-16 
4267.00 1.0527e-16 
4268.50 1.1465e-16 
4270.00 1.1248e-16 
4271.50 1.0079e-16 
4273.00 1.2469e-16 
4274.50 1.1999e-16 
4276.00 1.3255e-16 
4277.50 9.7424e-17 
4279.00 1.1704e-16 
4280.50 1.3032e-16 
4282.00 8.5301e-17 
4283.50 1.2698e-16 
4285.00 1.2033e-16 
4286.50 1.1795e-16 
4288.00 1.3432e-16 
4289.50 1.3409e-16 
4291.00 1.3937e-16 
4292.50 1.1781e-16 
4294.00 1.0223e-16 
4295.50 1.2992e-16 
4297.00 1.3888e-16 
4298.50 1.1998e-16 
4300.00 1.2012e-16 
4301.50 1.3468e-16 
4303.00 1.2478e-16 
4304.50 1.2275e-16 
4306.00 1.1196e-16 
4307.50 1.2274e-16 
4309.00 1.3628e-16 
4310.50 1.1108e-16 
4312.00 1.4454e-16 
4313.50 1.2652e-16 
4315.00 1.1189e-16 
4316.50 1.1436e-16 
4318.00 1.3211e-16 
4319.50 1.3352e-16 
4321.00 1.4863e-16 
4322.50 1.2103e-16 
4324.00 1.1284e-16 
4325.50 1.2360e-16 
4327.00 1.2850e-16 
4328.50 1.3465e-16 
4330.00 1.2432e-16 
4331.50 1.3714e-16 
4333.00 1.2057e-16 
4334.50 1.2491e-16 
4336.00 9.9778e-17 
4337.50 1.1577e-16 
4339.00 1.3678e-16 
4340.50 1.4439e-16 
4342.00 1.2649e-16 
4343.50 1.1770e-16 
4345.00 1.4383e-16 
4346.50 1.1756e-16 
4348.00 1.3357e-16 
4349.50 1.1812e-16 
4351.00 1.4480e-16 
4352.50 1.4167e-16 
4354.00 1.3626e-16 
4355.50 1.4643e-16 
4357.00 1.5340e-16 
4358.50 1.2248e-16 
4360.00 1.3288e-16 
4361.50 1.2153e-16 
4363.00 1.3271e-16 
4364.50 1.1985e-16 
4366.00 1.2052e-16 
4367.50 1.3599e-16 
4369.00 1.3933e-16 
4370.50 1.5664e-16 
4372.00 1.2261e-16 
4373.50 1.2400e-16 
4375.00 1.3317e-16 
4376.50 1.3512e-16 
4378.00 1.2062e-16 
4379.50 1.4619e-16 
4381.00 1.2886e-16 
4382.50 1.2242e-16 
4384.00 1.3058e-16 
4385.50 1.3884e-16 
4387.00 1.4347e-16 
4388.50 1.2462e-16 
4390.00 1.3447e-16 
4391.50 1.2095e-16 
4393.00 1.2354e-16 
4394.50 1.1052e-16 
4396.00 1.0971e-16 
4397.50 1.4804e-16 
4399.00 1.1074e-16 
4400.50 1.0972e-16 
4402.00 1.1947e-16 
4403.50 1.1851e-16 
4405.00 1.1592e-16 
4406.50 1.0891e-16 
4408.00 1.0365e-16 
4409.50 1.3882e-16 
4411.00 1.3699e-16 
4412.50 1.3594e-16 
4414.00 1.2470e-16 
4415.50 1.2907e-16 
4417.00 1.0385e-16 
4418.50 1.0808e-16 
4420.00 1.1256e-16 
4421.50 1.1660e-16 
4423.00 1.3088e-16 
4424.50 1.1194e-16 
4426.00 1.1717e-16 
4427.50 1.0940e-16 
4429.00 1.1527e-16 
4430.50 1.3117e-16 
4432.00 1.3218e-16 
4433.50 1.2010e-16 
4435.00 1.2195e-16 
4436.50 1.0690e-16 
4438.00 1.0344e-16 
4439.50 1.1880e-16 
4441.00 1.2200e-16 
4442.50 1.2622e-16 
4444.00 8.4708e-17 
4445.50 5.0026e-17 
4447.00 7.5852e-17 
4448.50 1.0429e-16 
4450.00 1.0860e-16 
4451.50 1.1234e-16 
4453.00 1.2230e-16 
4454.50 1.0333e-16 
4456.00 1.0215e-16 
4457.50 1.1188e-16 
4459.00 1.2203e-16 
4460.50 1.2438e-16 
4462.00 1.1299e-16 
4463.50 1.0008e-16 
4465.00 1.0201e-16 
4466.50 9.3373e-17 
4468.00 1.0785e-16 
4469.50 9.6311e-17 
4471.00 1.1959e-16 
4472.50 1.0812e-16 
4474.00 1.0658e-16 
4475.50 1.0330e-16 
4477.00 1.1456e-16 
4478.50 1.1203e-16 
4480.00 1.1411e-16 
4481.50 1.2462e-16 
4483.00 1.2212e-16 
4484.50 1.1936e-16 
4486.00 1.0662e-16 
4487.50 1.0558e-16 
4489.00 1.0409e-16 
4490.50 1.2057e-16 
4492.00 1.0605e-16 
4493.50 1.1494e-16 
4495.00 1.2202e-16 
4496.50 1.2293e-16 
4498.00 1.2169e-16 
4499.50 1.1225e-16 
4501.00 1.0122e-16 
4502.50 1.0018e-16 
4504.00 8.2522e-17 
4505.50 8.8594e-17 
4507.00 7.1551e-17 
4508.50 4.9130e-17 
4510.00 8.7567e-17 
4511.50 1.0256e-16 
4513.00 1.1056e-16 
4514.50 7.0564e-17 
4516.00 5.7233e-17 
4517.50 8.6204e-17 
4519.00 1.0051e-16 
4520.50 1.1153e-16 
4522.00 1.1177e-16 
4523.50 1.1252e-16 
4525.00 9.6444e-17 
4526.50 9.3189e-17 
4528.00 1.1528e-16 
4529.50 1.1587e-16 
4531.00 1.1053e-16 
4532.50 1.0242e-16 
4534.00 1.0418e-16 
4535.50 1.0761e-16 
4537.00 1.1178e-16 
4538.50 1.0214e-16 
4540.00 9.4824e-17 
4541.50 9.1147e-17 
4543.00 1.2279e-16 
4544.50 1.1042e-16 
4546.00 1.0477e-16 
4547.50 1.1190e-16 
4549.00 1.1812e-16 
4550.50 1.0048e-16 
4552.00 1.1734e-16 
4553.50 1.1853e-16 
4555.00 1.0990e-16 
4556.50 9.6682e-17 
4558.00 9.3557e-17 
4559.50 1.1118e-16 
4561.00 1.0469e-16 
4562.50 1.0996e-16 
4564.00 1.2679e-16 
4565.50 1.1623e-16 
4567.00 1.0819e-16 
4568.50 7.9354e-17 
4570.00 7.6130e-17 
4571.50 1.1212e-16 
4573.00 1.0288e-16 
4574.50 1.1267e-16 
4576.00 9.6507e-17 
4577.50 9.1950e-17 
4579.00 1.0156e-16 
4580.50 1.1141e-16 
4582.00 1.0914e-16 
4583.50 1.0809e-16 
4585.00 1.0784e-16 
4586.50 1.0547e-16 
4588.00 9.7972e-17 
4589.50 9.9777e-17 
4591.00 1.0581e-16 
4592.50 9.9932e-17 
4594.00 1.2649e-16 
4595.50 1.1598e-16 
4597.00 1.1619e-16 
4598.50 1.1397e-16 
4600.00 9.5326e-17 
4601.50 1.1357e-16 
4603.00 1.0592e-16 
4604.50 1.0242e-16 
4606.00 1.0444e-16 
4607.50 1.0327e-16 
4609.00 1.2772e-16 
4610.50 1.1919e-16 
4612.00 1.1926e-16 
4613.50 1.0870e-16 
4615.00 9.3453e-17 
4616.50 9.3910e-17 
4618.00 1.0487e-16 
4619.50 1.0143e-16 
4621.00 1.0304e-16 
4622.50 1.1325e-16 
4624.00 1.2317e-16 
4625.50 1.0379e-16 
4627.00 1.0686e-16 
4628.50 1.1540e-16 
4630.00 1.1489e-16 
4631.50 1.2342e-16 
4633.00 8.9712e-17 
4634.50 1.0045e-16 
4636.00 1.0852e-16 
4637.50 1.1102e-16 
4639.00 1.1179e-16 
4640.50 1.1880e-16 
4642.00 8.6479e-17 
4643.50 1.1360e-16 
4645.00 1.1890e-16 
4646.50 1.0403e-16 
4648.00 1.0291e-16 
4649.50 1.0715e-16 
4651.00 9.7118e-17 
4652.50 1.0037e-16 
4654.00 1.1831e-16 
4655.50 1.1972e-16 
4657.00 1.1262e-16 
4658.50 1.0508e-16 
4660.00 1.0292e-16 
4661.50 1.1047e-16 
4663.00 1.0774e-16 
4664.50 1.0413e-16 
4666.00 9.7713e-17 
4667.50 1.1088e-16 
4669.00 1.1847e-16 
4670.50 1.1201e-16 
4672.00 9.3959e-17 
4673.50 9.6340e-17 
4675.00 9.9996e-17 
4676.50 1.0191e-16 
4678.00 9.6815e-17 
4679.50 8.6982e-17 
4681.00 1.0617e-16 
4682.50 6.5175e-17 
4684.00 6.6150e-17 
4685.50 8.0570e-17 
4687.00 1.0297e-16 
4688.50 1.0710e-16 
4690.00 1.2581e-16 
4691.50 1.2171e-16 
4693.00 1.1435e-16 
4694.50 1.0952e-16 
4696.00 1.2004e-16 
4697.50 1.0569e-16 
4699.00 1.0021e-16 
4700.50 1.1193e-16 
4702.00 1.0637e-16 
4703.50 1.0732e-16 
4705.00 1.1294e-16 
4706.50 1.1708e-16 
4708.00 1.0665e-16 
4709.50 1.1905e-16 
4711.00 1.2039e-16 
4712.50 1.0083e-16 
4714.00 1.1481e-16 
4715.50 1.0117e-16 
4717.00 1.0010e-16 
4718.50 1.0589e-16 
4720.00 1.0969e-16 
4721.50 1.0426e-16 
4723.00 1.0524e-16 
4724.50 1.1369e-16 
4726.00 1.1679e-16 
4727.50 9.9074e-17 
4729.00 1.1467e-16 
4730.50 1.2906e-16 
4732.00 1.2006e-16 
4733.50 1.1091e-16 
4735.00 1.1769e-16 
4736.50 1.0958e-16 
4738.00 1.1431e-16 
4739.50 1.1927e-16 
4741.00 1.2116e-16 
4742.50 1.1005e-16 
4744.00 1.1249e-16 
4745.50 1.3184e-16 
4747.00 1.1991e-16 
4748.50 1.0066e-16 
4750.00 1.0206e-16 
4751.50 1.1889e-16 
4753.00 1.1030e-16 
4754.50 1.2237e-16 
4756.00 1.1628e-16 
4757.50 1.2977e-16 
4759.00 1.1723e-16 
4760.50 1.1556e-16 
4762.00 1.2422e-16 
4763.50 1.2069e-16 
4765.00 1.3509e-16 
4766.50 1.2291e-16 
4768.00 1.1877e-16 
4769.50 1.4014e-16 
4771.00 1.1741e-16 
4772.50 1.1463e-16 
4774.00 1.1313e-16 
4775.50 1.2456e-16 
4777.00 1.2221e-16 
4778.50 1.2685e-16 
4780.00 1.2924e-16 
4781.50 1.2529e-16 
4783.00 1.1364e-16 
4784.50 1.2862e-16 
4786.00 1.2283e-16 
4787.50 1.1467e-16 
4789.00 1.1551e-16 
4790.50 1.3487e-16 
4792.00 1.2601e-16 
4793.50 1.2865e-16 
4795.00 1.3123e-16 
4796.50 1.2698e-16 
4798.00 1.1055e-16 
4799.50 1.2590e-16 
4801.00 1.2885e-16 
4802.50 1.3055e-16 
4804.00 1.5264e-16 
4805.50 1.3791e-16 
4807.00 1.4123e-16 
4808.50 1.5857e-16 
4810.00 1.5749e-16 
4811.50 1.4474e-16 
4813.00 1.6429e-16 
4814.50 1.0823e-16 
4816.00 5.6892e-17 
4817.50 7.9877e-17 
4819.00 1.2195e-16 
4820.50 1.3712e-16 
4822.00 1.2531e-16 
4823.50 8.3505e-17 
4825.00 9.0520e-17 
4826.50 1.0332e-16 
4828.00 1.2893e-16 
4829.50 1.4493e-16 
4831.00 1.4488e-16 
4832.50 1.3204e-16 
4834.00 1.4377e-16 
4835.50 1.2790e-16 
4837.00 1.3890e-16 
4838.50 1.4450e-16 
4840.00 1.2899e-16 
4841.50 1.4210e-16 
4843.00 1.2514e-16 
4844.50 1.1019e-16 
4846.00 1.3838e-16 
4847.50 1.2982e-16 
4849.00 1.3188e-16 
4850.50 1.3558e-16 
4852.00 9.8799e-17 
4853.50 1.1131e-16 
4855.00 1.2754e-16 
4856.50 1.2502e-16 
4858.00 1.2061e-16 
4859.50 1.0621e-16 
4861.00 1.0300e-16 
4862.50 9.1282e-17 
4864.00 6.0826e-17 
4865.50 4.9406e-17 
4867.00 8.6918e-17 
4868.50 1.1386e-16 
4870.00 1.1820e-16 
4871.50 1.1126e-16 
4873.00 1.1043e-16 
4874.50 1.2170e-16 
4876.00 1.1081e-16 
4877.50 1.1220e-16 
4879.00 1.1928e-16 
4880.50 1.2338e-16 
4882.00 1.1795e-16 
4883.50 1.0550e-16 
4885.00 1.2287e-16 
4886.50 1.1839e-16 
4888.00 1.1354e-16 
4889.50 1.1687e-16 
4891.00 1.1667e-16 
4892.50 1.2078e-16 
4894.00 1.1324e-16 
4895.50 1.1307e-16 
4897.00 1.2044e-16 
4898.50 1.1239e-16 
4900.00 1.0026e-16 
4901.50 1.1669e-16 
4903.00 1.0760e-16 
4904.50 1.1018e-16 
4906.00 1.1142e-16 
4907.50 1.0852e-16 
4909.00 1.1356e-16 
4910.50 1.1353e-16 
4912.00 1.1301e-16 
4913.50 1.0421e-16 
4915.00 1.0885e-16 
4916.50 1.2889e-16 
4918.00 1.1827e-16 
4919.50 1.1488e-16 
4921.00 1.2065e-16 
4922.50 1.1718e-16 
4924.00 9.8803e-17 
4925.50 9.0710e-17 
4927.00 9.7169e-17 
4928.50 9.6525e-17 
4930.00 1.0941e-16 
4931.50 1.0571e-16 
4933.00 9.6785e-17 
4934.50 9.7262e-17 
4936.00 1.0537e-16 
4937.50 1.1298e-16 
4939.00 9.7323e-17 
4940.50 1.0005e-16 
4942.00 1.1756e-16 
4943.50 1.0125e-16 
4945.00 9.8952e-17 
4946.50 1.0983e-16 
4948.00 1.0886e-16 
4949.50 1.0634e-16 
4951.00 1.0317e-16 
4952.50 1.0705e-16 
4954.00 1.0120e-16 
4955.50 1.0093e-16 
4957.00 1.1975e-16 
4958.50 1.0542e-16 
4960.00 1.0702e-16 
4961.50 1.0722e-16 
4963.00 1.0997e-16 
4964.50 1.0781e-16 
4966.00 1.1166e-16 
4967.50 9.7848e-17 
4969.00 1.0783e-16 
4970.50 9.8719e-17 
4972.00 9.2711e-17 
4973.50 1.0663e-16 
4975.00 1.0018e-16 
4976.50 1.1369e-16 
4978.00 9.5003e-17 
4979.50 1.0237e-16 
4981.00 8.3943e-17 
4982.50 9.3037e-17 
4984.00 1.0111e-16 
4985.50 1.1714e-16 
4987.00 1.0998e-16 
4988.50 1.1954e-16 
4990.00 1.0119e-16 
4991.50 1.1294e-16 
4993.00 1.0689e-16 
4994.50 1.0062e-16 
4996.00 1.0234e-16 
4997.50 1.0271e-16 
4999.00 9.4096e-17 
5000.50 9.9399e-17 
5002.00 1.1638e-16 
5003.50 1.1862e-16 
5005.00 1.0157e-16 
5006.50 9.8639e-17 
5008.00 1.0463e-16 
5009.50 1.0582e-16 
5011.00 1.0623e-16 
5012.50 9.3139e-17 
5014.00 9.0018e-17 
5015.50 1.0474e-16 
5017.00 1.0998e-16 
5018.50 1.0803e-16 
5020.00 1.0732e-16 
5021.50 9.9730e-17 
5023.00 1.1329e-16 
5024.50 1.0668e-16 
5026.00 1.0508e-16 
5027.50 1.0503e-16 
5029.00 1.1329e-16 
5030.50 9.1149e-17 
5032.00 8.7802e-17 
5033.50 8.9470e-17 
5035.00 1.0906e-16 
5036.50 9.7599e-17 
5038.00 9.3444e-17 
5039.50 1.0996e-16 
5041.00 1.1230e-16 
5042.50 1.0200e-16 
5044.00 1.0192e-16 
5045.50 1.0883e-16 
5047.00 1.1492e-16 
5048.50 1.1039e-16 
5050.00 1.1238e-16 
5051.50 1.0357e-16 
5053.00 8.3193e-17 
5054.50 9.7239e-17 
5056.00 9.7147e-17 
5057.50 9.6695e-17 
5059.00 1.0097e-16 
5060.50 9.9256e-17 
5062.00 1.0717e-16 
5063.50 1.0285e-16 
5065.00 1.0057e-16 
5066.50 1.0148e-16 
5068.00 1.0796e-16 
5069.50 8.6320e-17 
5071.00 8.8234e-17 
5072.50 9.9187e-17 
5074.00 9.4229e-17 
5075.50 1.0501e-16 
5077.00 1.0521e-16 
5078.50 1.1060e-16 
5080.00 9.8515e-17 
5081.50 9.6806e-17 
5083.00 9.5879e-17 
5084.50 1.0619e-16 
5086.00 1.0355e-16 
5087.50 1.0481e-16 
5089.00 1.1090e-16 
5090.50 1.0367e-16 
5092.00 1.0817e-16 
5093.50 1.0624e-16 
5095.00 9.6491e-17 
5096.50 9.7250e-17 
5098.00 8.8098e-17 
5099.50 9.5184e-17 
5101.00 1.0106e-16 
5102.50 1.0622e-16 
5104.00 1.0177e-16 
5105.50 1.1226e-16 
5107.00 1.0772e-16 
5108.50 9.9526e-17 
5110.00 1.0811e-16 
5111.50 1.1459e-16 
5113.00 1.0658e-16 
5114.50 9.2629e-17 
5116.00 1.0810e-16 
5117.50 9.4342e-17 
5119.00 8.9874e-17 
5120.50 1.0826e-16 
5122.00 9.5978e-17 
5123.50 1.0544e-16 
5125.00 1.0828e-16 
5126.50 1.0289e-16 
5128.00 1.0245e-16 
5129.50 1.0733e-16 
5131.00 1.0478e-16 
5132.50 1.0387e-16 
5134.00 9.7790e-17 
5135.50 9.3434e-17 
5137.00 9.3282e-17 
5138.50 9.4126e-17 
5140.00 9.2645e-17 
5141.50 1.0443e-16 
5143.00 9.8782e-17 
5144.50 1.0111e-16 
5146.00 1.0006e-16 
5147.50 1.0923e-16 
5149.00 9.2266e-17 
5150.50 9.9257e-17 
5152.00 1.0052e-16 
5153.50 9.8061e-17 
5155.00 9.3286e-17 
5156.50 1.0853e-16 
5158.00 1.0268e-16 
5159.50 9.7145e-17 
5161.00 1.0712e-16 
5162.50 9.9960e-17 
5164.00 9.6409e-17 
5165.50 9.7907e-17 
5167.00 1.0022e-16 
5168.50 9.5301e-17 
5170.00 9.3223e-17 
5171.50 1.0419e-16 
5173.00 9.8961e-17 
5174.50 9.3196e-17 
5176.00 1.0519e-16 
5177.50 1.0566e-16 
5179.00 1.0727e-16 
5180.50 1.0276e-16 
5182.00 1.0530e-16 
5183.50 9.8048e-17 
5185.00 9.2665e-17 
5186.50 9.3922e-17 
5188.00 9.8900e-17 
5189.50 1.0798e-16 
5191.00 1.0668e-16 
5192.50 8.7924e-17 
5194.00 9.6062e-17 
5195.50 9.5817e-17 
5197.00 1.0214e-16 
5198.50 9.4472e-17 
5200.00 9.3370e-17 
5201.50 1.0265e-16 
5203.00 9.8819e-17 
5204.50 9.6544e-17 
5206.00 8.9509e-17 
5207.50 1.0396e-16 
5209.00 1.0257e-16 
5210.50 1.0033e-16 
5212.00 1.0680e-16 
5213.50 9.8912e-17 
5215.00 9.2051e-17 
5216.50 9.9715e-17 
5218.00 9.5497e-17 
5219.50 9.3326e-17 
5221.00 9.6656e-17 
5222.50 1.0011e-16 
5224.00 1.0660e-16 
5225.50 9.4862e-17 
5227.00 9.4327e-17 
5228.50 9.4133e-17 
5230.00 9.6659e-17 
5231.50 8.8880e-17 
5233.00 8.2678e-17 
5234.50 9.7518e-17 
5236.00 1.0486e-16 
5237.50 1.0713e-16 
5239.00 9.3009e-17 
5240.50 8.7988e-17 
5242.00 1.0234e-16 
5243.50 9.8241e-17 
5245.00 9.5965e-17 
5246.50 9.1253e-17 
5248.00 8.8621e-17 
5249.50 1.0741e-16 
5251.00 1.0056e-16 
5252.50 9.3916e-17 
5254.00 9.5328e-17 
5255.50 9.3166e-17 
5257.00 9.6571e-17 
5258.50 9.4409e-17 
5260.00 9.4467e-17 
5261.50 1.0102e-16 
5263.00 9.7926e-17 
5264.50 8.0960e-17 
5266.00 8.3425e-17 
5267.50 9.8202e-17 
5269.00 9.8283e-17 
5270.50 1.0721e-16 
5272.00 1.0409e-16 
5273.50 9.5009e-17 
5275.00 9.8188e-17 
5276.50 9.6232e-17 
5278.00 9.9503e-17 
5279.50 1.0244e-16 
5281.00 9.3517e-17 
5282.50 1.0172e-16 
5284.00 8.5126e-17 
5285.50 1.0387e-16 
5287.00 7.9040e-17 
5288.50 9.5017e-17 
5290.00 9.2617e-17 
5291.50 9.0030e-17 
5293.00 8.2844e-17 
5294.50 9.6489e-17 
5296.00 8.4629e-17 
5297.50 8.6247e-17 
5299.00 9.2304e-17 
5300.50 9.8270e-17 
5302.00 1.0289e-16 
5303.50 9.9071e-17 
5305.00 1.0125e-16 
5306.50 1.0129e-16 
5308.00 1.0161e-16 
5309.50 9.6641e-17 
5311.00 8.6406e-17 
5312.50 9.2847e-17 
5314.00 1.0347e-16 
5315.50 9.6435e-17 
5317.00 8.9223e-17 
5318.50 1.0095e-16 
5320.00 9.9001e-17 
5321.50 9.3539e-17 
5323.00 9.9571e-17 
5324.50 9.8346e-17 
5326.00 8.6753e-17 
5327.50 9.4329e-17 
5329.00 1.0207e-16 
5330.50 9.5537e-17 
5332.00 9.0608e-17 
5333.50 9.8363e-17 
5335.00 1.0086e-16 
5336.50 8.8103e-17 
5338.00 9.3554e-17 
5339.50 8.6260e-17 
5341.00 8.3637e-17 
5342.50 8.5437e-17 
5344.00 7.8936e-17 
5345.50 9.3393e-17 
5347.00 9.7119e-17 
5348.50 8.8884e-17 
5350.00 9.2685e-17 
5351.50 9.9406e-17 
5353.00 8.8404e-17 
5354.50 9.9298e-17 
5356.00 8.4941e-17 
5357.50 9.3953e-17 
5359.00 9.9816e-17 
5360.50 1.1196e-16 
5362.00 9.6480e-17 
5363.50 1.0175e-16 
5365.00 8.9453e-17 
5366.50 9.5285e-17 
5368.00 8.4957e-17 
5369.50 9.0595e-17 
5371.00 9.9951e-17 
5372.50 9.3599e-17 
5374.00 8.1703e-17 
5375.50 9.5784e-17 
5377.00 9.8073e-17 
5378.50 1.0261e-16 
5380.00 8.9739e-17 
5381.50 8.8599e-17 
5383.00 9.2896e-17 
5384.50 9.1184e-17 
5386.00 8.9419e-17 
5387.50 8.0715e-17 
5389.00 9.6515e-17 
5390.50 9.1507e-17 
5392.00 1.0060e-16 
5393.50 9.9251e-17 
5395.00 9.1301e-17 
5396.50 9.2374e-17 
5398.00 9.8930e-17 
5399.50 7.7800e-17 
5401.00 6.8447e-17 
5402.50 8.9878e-17 
5404.00 9.6738e-17 
5405.50 8.8225e-17 
5407.00 8.8333e-17 
5408.50 8.4448e-17 
5410.00 9.7358e-17 
5411.50 9.3792e-17 
5413.00 9.5930e-17 
5414.50 1.0167e-16 
5416.00 8.6577e-17 
5417.50 8.5708e-17 
5419.00 9.4289e-17 
5420.50 8.3070e-17 
5422.00 8.9872e-17 
5423.50 9.6449e-17 
5425.00 8.5682e-17 
5426.50 9.0098e-17 
5428.00 1.0069e-16 
5429.50 8.9501e-17 
5431.00 8.3317e-17 
5432.50 9.8255e-17 
5434.00 9.8513e-17 
5435.50 9.7253e-17 
5437.00 9.5719e-17 
5438.50 9.5128e-17 
5440.00 1.0025e-16 
5441.50 1.1991e-16 
5443.00 9.8131e-17 
5444.50 1.0086e-16 
5446.00 8.3575e-17 
5447.50 9.7094e-17 
5449.00 9.1920e-17 
5450.50 1.0433e-16 
5452.00 1.0560e-16 
5453.50 1.0429e-16 
5455.00 9.5532e-17 
5456.50 9.3874e-17 
5458.00 9.5940e-17 
5459.50 9.7858e-17 
5461.00 9.4362e-17 
5462.50 9.8257e-17 
5464.00 1.0483e-16 
5465.50 8.0817e-17 
5467.00 9.7535e-17 
5468.50 1.1084e-16 
5470.00 9.9342e-17 
5471.50 9.1978e-17 
5473.00 9.2890e-17 
5474.50 9.0144e-17 
5476.00 8.8717e-17 
5477.50 9.5308e-17 
5479.00 8.1636e-17 
5480.50 9.6231e-17 
5482.00 1.0320e-16 
5483.50 9.6649e-17 
5485.00 9.5127e-17 
5486.50 9.7246e-17 
5488.00 1.0184e-16 
5489.50 8.4149e-17 
5491.00 9.0949e-17 
5492.50 7.9136e-17 
5494.00 8.7113e-17 
5495.50 8.7599e-17 
5497.00 8.9317e-17 
5498.50 8.6770e-17 
5500.00 9.3175e-17 
5501.50 9.8582e-17 
5503.00 7.7254e-17 
5504.50 9.2758e-17 
5506.00 9.3259e-17 
5507.50 8.9226e-17 
5509.00 1.0306e-16 
5510.50 9.1383e-17 
5512.00 9.2424e-17 
5513.50 8.7402e-17 
5515.00 8.6325e-17 
5516.50 9.1533e-17 
5518.00 1.0252e-16 
5519.50 9.9037e-17 
5521.00 1.0285e-16 
5522.50 9.0362e-17 
5524.00 8.8645e-17 
5525.50 9.4075e-17 
5527.00 9.5959e-17 
5528.50 9.6135e-17 
5530.00 9.6210e-17 
5531.50 9.9206e-17 
5533.00 9.9113e-17 
5534.50 1.0189e-16 
5536.00 9.1950e-17 
5537.50 8.9558e-17 
5539.00 9.2737e-17 
5540.50 8.6399e-17 
5542.00 8.8582e-17 
5543.50 9.2585e-17 
5545.00 1.0048e-16 
5546.50 9.2946e-17 
5548.00 8.0383e-17 
5549.50 9.0456e-17 
5551.00 1.0509e-16 
5552.50 1.0166e-16 
5554.00 1.0168e-16 
5555.50 1.1632e-16 
5557.00 1.0939e-16 
5558.50 1.0118e-16 
5560.00 9.1374e-17 
5561.50 9.1055e-17 
5563.00 9.6889e-17 
5564.50 9.1939e-17 
5566.00 9.0937e-17 
5567.50 9.1417e-17 
5569.00 9.7831e-17 
5570.50 9.0267e-17 
5572.00 9.7868e-17 
5573.50 9.1773e-17 
5575.00 9.1896e-17 
5576.50 7.7487e-17 
5578.00 9.2058e-17 
5579.50 1.2798e-16 
5581.00 1.1608e-16 
5582.50 1.0822e-16 
5584.00 9.8754e-17 
5585.50 8.9328e-17 
5587.00 9.5979e-17 
5588.50 8.7693e-17 
5590.00 9.0960e-17 
5591.50 9.4935e-17 
5593.00 1.0123e-16 
5594.50 9.5985e-17 
5596.00 7.7430e-17 
5597.50 8.3447e-17 
5599.00 9.5838e-17 
5600.50 9.0781e-17 
5602.00 8.7131e-17 
5603.50 9.6635e-17 
5605.00 9.4752e-17 
5606.50 9.5447e-17 
5608.00 9.9865e-17 
5609.50 1.0211e-16 
5611.00 9.0119e-17 
5612.50 1.0352e-16 
5614.00 9.3556e-17 
5615.50 9.5255e-17 
5617.00 9.5390e-17 
5618.50 1.0064e-16 
5620.00 8.3754e-17 
5621.50 8.6709e-17 
5623.00 8.2977e-17 
5624.50 8.6475e-17 
5626.00 8.2813e-17 
5627.50 9.6043e-17 
5629.00 9.0802e-17 
5630.50 8.8737e-17 
5632.00 9.0619e-17 
5633.50 1.0023e-16 
5635.00 9.1496e-17 
5636.50 8.4302e-17 
5638.00 9.2045e-17 
5639.50 9.0096e-17 
5641.00 8.4246e-17 
5642.50 9.1202e-17 
5644.00 9.1382e-17 
5645.50 8.4944e-17 
5647.00 9.3255e-17 
5648.50 8.7558e-17 
5650.00 8.6616e-17 
5651.50 8.6738e-17 
5653.00 9.5188e-17 
5654.50 9.3145e-17 
5656.00 8.6847e-17 
5657.50 8.3303e-17 
5659.00 9.2974e-17 
5660.50 8.7873e-17 
5662.00 9.4996e-17 
5663.50 1.0117e-16 
5665.00 9.2612e-17 
5666.50 8.9619e-17 
5668.00 9.3726e-17 
5669.50 9.7768e-17 
5671.00 9.2860e-17 
5672.50 8.2943e-17 
5674.00 8.1825e-17 
5675.50 8.0256e-17 
5677.00 7.6073e-17 
5678.50 7.8875e-17 
5680.00 8.4573e-17 
5681.50 8.7056e-17 
5683.00 9.0148e-17 
5684.50 9.1320e-17 
5686.00 8.7315e-17 
5687.50 9.5092e-17 
5689.00 9.4593e-17 
5690.50 8.1141e-17 
5692.00 7.3030e-17 
5693.50 9.1132e-17 
5695.00 9.8378e-17 
5696.50 9.0305e-17 
5698.00 9.2351e-17 
5699.50 1.0393e-16 
5701.00 1.0031e-16 
5702.50 9.8377e-17 
5704.00 9.4173e-17 
5705.50 9.1032e-17 
5707.00 8.7247e-17 
5708.50 8.6046e-17 
5710.00 9.1236e-17 
5711.50 9.2196e-17 
5713.00 9.7086e-17 
5714.50 9.5273e-17 
5716.00 8.8705e-17 
5717.50 9.3323e-17 
5719.00 8.2489e-17 
5720.50 9.8928e-17 
5722.00 9.5777e-17 
5723.50 1.0045e-16 
5725.00 9.7490e-17 
5726.50 9.4741e-17 
5728.00 8.9988e-17 
5729.50 8.7003e-17 
5731.00 8.5723e-17 
5732.50 9.3589e-17 
5734.00 8.7542e-17 
5735.50 9.2038e-17 
5737.00 9.0293e-17 
5738.50 9.3985e-17 
5740.00 9.5880e-17 
5741.50 7.9557e-17 
5743.00 9.8781e-17 
5744.50 1.0471e-16 
5746.00 9.0143e-17 
5747.50 8.2530e-17 
5749.00 7.7725e-17 
5750.50 7.4570e-17 
5752.00 9.1571e-17 
5753.50 9.5170e-17 
5755.00 1.0268e-16 
5756.50 9.5208e-17 
5758.00 1.0152e-16 
5759.50 8.4737e-17 
5761.00 8.8413e-17 
5762.50 1.0520e-16 
5764.00 1.0196e-16 
5765.50 9.8259e-17 
5767.00 9.7258e-17 
5768.50 9.8035e-17 
5770.00 9.6363e-17 
5771.50 8.6876e-17 
5773.00 8.8776e-17 
5774.50 9.0076e-17 
5776.00 9.7190e-17 
5777.50 1.0960e-16 
5779.00 1.1236e-16 
5780.50 1.0607e-16 
5782.00 1.0994e-16 
5783.50 1.0216e-16 
5785.00 8.7259e-17 
5786.50 1.0245e-16 
5788.00 1.0186e-16 
5789.50 8.4545e-17 
5791.00 7.9983e-17 
5792.50 8.4279e-17 
5794.00 1.0270e-16 
5795.50 1.0817e-16 
5797.00 1.0540e-16 
5798.50 1.0064e-16 
5800.00 8.9410e-17 
5801.50 1.0550e-16 
5803.00 1.0573e-16 
5804.50 9.0335e-17 
5806.00 8.6702e-17 
5807.50 8.9227e-17 
5809.00 9.9150e-17 
5810.50 9.8608e-17 
5812.00 9.4836e-17 
5813.50 9.6350e-17 
5815.00 8.8983e-17 
5816.50 8.2091e-17 
5818.00 8.1442e-17 
5819.50 8.7335e-17 
5821.00 1.0368e-16 
5822.50 9.6119e-17 
5824.00 1.0159e-16 
5825.50 1.0901e-16 
5827.00 9.9586e-17 
5828.50 9.4037e-17 
5830.00 9.3777e-17 
5831.50 9.5903e-17 
5833.00 9.0704e-17 
5834.50 8.9185e-17 
5836.00 9.5553e-17 
5837.50 9.6347e-17 
5839.00 9.6533e-17 
5840.50 1.0186e-16 
5842.00 1.0350e-16 
5843.50 1.0321e-16 
5845.00 1.1094e-16 
5846.50 9.4779e-17 
5848.00 1.0240e-16 
5849.50 1.0710e-16 
5851.00 1.0335e-16 
5852.50 1.0726e-16 
5854.00 1.0266e-16 
5855.50 9.8965e-17 
5857.00 1.0813e-16 
5858.50 1.0491e-16 
5860.00 9.5541e-17 
5861.50 1.0071e-16 
5863.00 1.0109e-16 
5864.50 9.3875e-17 
5866.00 1.0781e-16 
5867.50 1.1694e-16 
5869.00 1.1061e-16 
5870.50 1.1382e-16 
5872.00 9.4750e-17 
5873.50 9.2350e-17 
5875.00 1.0776e-16 
5876.50 1.0649e-16 
5878.00 1.0102e-16 
5879.50 1.0253e-16 
5881.00 1.0140e-16 
5882.50 1.0607e-16 
5884.00 1.0561e-16 
5885.50 1.0267e-16 
5887.00 1.0514e-16 
5888.50 1.1469e-16 
5890.00 8.1324e-17 
5891.50 1.0886e-16 
5893.00 1.0900e-16 
5894.50 8.8635e-17 
5896.00 1.0595e-16 
5897.50 1.0504e-16 
5899.00 9.7390e-17 
5900.50 8.5451e-17 
5902.00 9.4217e-17 
5903.50 1.0358e-16 
5905.00 1.0674e-16 
5906.50 1.0867e-16 
5908.00 9.4591e-17 
5909.50 9.3765e-17 
5911.00 1.0518e-16 
5912.50 9.7114e-17 
5914.00 1.0410e-16 
5915.50 1.1543e-16 
5917.00 1.0098e-16 
5918.50 9.3355e-17 
5920.00 1.0281e-16 
5921.50 9.4563e-17 
5923.00 1.0354e-16 
5924.50 1.0415e-16 
5926.00 1.0281e-16 
5927.50 9.6953e-17 
5929.00 1.0289e-16 
5930.50 1.1444e-16 
5932.00 1.1034e-16 
5933.50 1.0345e-16 
5935.00 1.1093e-16 
5936.50 1.1375e-16 
5938.00 1.0644e-16 
5939.50 1.0348e-16 
5941.00 1.0366e-16 
5942.50 1.1643e-16 
5944.00 1.0692e-16 
5945.50 1.0766e-16 
5947.00 8.9905e-17 
5948.50 8.8035e-17 
5950.00 9.5951e-17 
5951.50 9.0840e-17 
5953.00 9.8754e-17 
5954.50 9.4841e-17 
5956.00 9.5420e-17 
5957.50 9.1881e-17 
5959.00 8.0623e-17 
5960.50 9.2129e-17 
5962.00 1.0214e-16 
5963.50 1.0373e-16 
5965.00 1.0898e-16 
5966.50 1.0537e-16 
5968.00 9.9194e-17 
5969.50 1.1423e-16 
5971.00 1.1892e-16 
5972.50 1.0310e-16 
5974.00 9.1232e-17 
5975.50 9.2856e-17 
5977.00 8.4773e-17 
5978.50 1.0029e-16 
5980.00 1.0440e-16 
5981.50 1.0903e-16 
5983.00 1.0794e-16 
5984.50 8.7771e-17 
5986.00 8.2924e-17 
5987.50 8.8803e-17 
5989.00 8.6049e-17 
5990.50 9.0719e-17 
5992.00 1.0616e-16 
5993.50 9.1053e-17 
5995.00 9.5537e-17 
5996.50 1.0190e-16 
5998.00 8.8765e-17 
5999.50 9.3457e-17 
6001.00 1.0267e-16 
6002.50 8.3140e-17 
6004.00 8.6214e-17 
6005.50 7.6321e-17 
6007.00 8.5008e-17 
6008.50 8.7859e-17 
6010.00 7.5039e-17 
6011.50 8.6452e-17 
6013.00 9.2926e-17 
6014.50 9.0240e-17 
6016.00 9.4662e-17 
6017.50 9.4495e-17 
6019.00 8.8684e-17 
6020.50 9.7442e-17 
6022.00 9.8862e-17 
6023.50 9.5955e-17 
6025.00 9.5132e-17 
6026.50 9.9846e-17 
6028.00 9.6838e-17 
6029.50 9.2594e-17 
6031.00 8.9913e-17 
6032.50 9.4765e-17 
6034.00 1.0231e-16 
6035.50 7.9730e-17 
6037.00 1.0515e-16 
6038.50 9.4060e-17 
6040.00 9.0744e-17 
6041.50 8.7751e-17 
6043.00 8.2684e-17 
6044.50 8.2004e-17 
6046.00 8.2976e-17 
6047.50 9.3328e-17 
6049.00 1.0015e-16 
6050.50 9.9532e-17 
6052.00 9.4076e-17 
6053.50 8.1590e-17 
6055.00 8.0929e-17 
6056.50 8.8320e-17 
6058.00 8.1039e-17 
6059.50 7.7029e-17 
6061.00 9.3772e-17 
6062.50 9.3924e-17 
6064.00 8.9665e-17 
6065.50 8.8557e-17 
6067.00 8.5128e-17 
6068.50 8.1612e-17 
6070.00 8.2222e-17 
6071.50 9.2040e-17 
6073.00 9.1101e-17 
6074.50 8.2286e-17 
6076.00 8.7277e-17 
6077.50 9.3649e-17 
6079.00 9.0397e-17 
6080.50 9.3202e-17 
6082.00 9.2250e-17 
6083.50 8.7067e-17 
6085.00 8.1596e-17 
6086.50 8.2808e-17 
6088.00 8.0833e-17 
6089.50 8.2388e-17 
6091.00 9.0114e-17 
6092.50 8.6658e-17 
6094.00 9.6528e-17 
6095.50 8.9948e-17 
6097.00 7.2988e-17 
6098.50 7.9802e-17 
6100.00 8.5883e-17 
6101.50 8.2257e-17 
6103.00 8.7739e-17 
6104.50 8.5753e-17 
6106.00 8.8434e-17 
6107.50 8.4344e-17 
6109.00 8.0128e-17 
6110.50 7.8774e-17 
6112.00 7.9215e-17 
6113.50 8.3775e-17 
6115.00 9.2019e-17 
6116.50 9.4223e-17 
6118.00 8.6543e-17 
6119.50 8.3385e-17 
6121.00 7.7573e-17 
6122.50 8.1962e-17 
6124.00 7.7650e-17 
6125.50 7.6572e-17 
6127.00 7.8142e-17 
6128.50 7.7394e-17 
6130.00 8.1767e-17 
6131.50 8.0448e-17 
6133.00 8.2357e-17 
6134.50 9.3289e-17 
6136.00 8.1979e-17 
6137.50 7.9199e-17 
6139.00 9.3773e-17 
6140.50 8.7727e-17 
6142.00 6.8108e-17 
6143.50 7.5949e-17 
6145.00 9.1637e-17 
6146.50 7.6223e-17 
6148.00 7.8199e-17 
6149.50 7.5348e-17 
6151.00 7.8996e-17 
6152.50 8.8654e-17 
6154.00 8.8404e-17 
6155.50 9.1837e-17 
6157.00 8.7629e-17 
6158.50 7.3703e-17 
6160.00 7.6375e-17 
6161.50 7.8901e-17 
6163.00 8.8338e-17 
6164.50 9.7310e-17 
6166.00 9.2767e-17 
6167.50 7.8694e-17 
6169.00 7.0628e-17 
6170.50 7.2839e-17 
6172.00 7.2171e-17 
6173.50 7.6851e-17 
6175.00 7.9136e-17 
6176.50 8.4459e-17 
6178.00 8.8072e-17 
6179.50 8.2263e-17 
6181.00 8.2184e-17 
6182.50 8.5517e-17 
6184.00 8.2923e-17 
6185.50 8.0085e-17 
6187.00 7.7212e-17 
6188.50 8.3939e-17 
6190.00 8.4409e-17 
6191.50 8.3797e-17 
6193.00 8.1943e-17 
6194.50 7.4748e-17 
6196.00 9.0291e-17 
6197.50 8.7627e-17 
6199.00 8.6921e-17 
6200.50 9.2001e-17 
6202.00 8.5832e-17 
6203.50 7.2768e-17 
6205.00 7.9509e-17 
6206.50 9.4216e-17 
6208.00 9.2724e-17 
6209.50 8.4771e-17 
6211.00 9.5270e-17 
6212.50 8.8390e-17 
6214.00 7.2362e-17 
6215.50 7.7149e-17 
6217.00 8.6137e-17 
6218.50 8.5761e-17 
6220.00 8.7201e-17 
6221.50 8.6128e-17 
6223.00 8.4693e-17 
6224.50 7.2445e-17 
6226.00 7.2436e-17 
6227.50 7.9471e-17 
6229.00 7.8466e-17 
6230.50 8.2108e-17 
6232.00 7.5758e-17 
6233.50 8.1951e-17 
6235.00 7.8866e-17 
6236.50 7.3033e-17 
6238.00 8.1370e-17 
6239.50 8.1499e-17 
6241.00 8.1175e-17 
6242.50 8.9367e-17 
6244.00 8.2152e-17 
6245.50 7.8828e-17 
6247.00 7.8876e-17 
6248.50 7.6998e-17 
6250.00 8.7203e-17 
6251.50 8.6025e-17 
6253.00 7.5596e-17 
6254.50 9.2208e-17 
6256.00 8.6044e-17 
6257.50 8.3615e-17 
6259.00 9.0192e-17 
6260.50 9.3719e-17 
6262.00 8.4199e-17 
6263.50 7.4828e-17 
6265.00 8.4446e-17 
6266.50 7.5778e-17 
6268.00 7.8288e-17 
6269.50 8.8392e-17 
6271.00 8.7480e-17 
6272.50 7.9039e-17 
6274.00 7.9980e-17 
6275.50 8.0055e-17 
6277.00 7.5213e-17 
6278.50 7.9255e-17 
6280.00 8.5446e-17 
6281.50 8.2543e-17 
6283.00 8.5287e-17 
6284.50 8.6595e-17 
6286.00 8.5058e-17 
6287.50 8.9126e-17 
6289.00 8.7425e-17 
6290.50 7.2183e-17 
6292.00 7.9712e-17 
6293.50 8.6898e-17 
6295.00 8.0708e-17 
6296.50 7.7822e-17 
6298.00 8.8658e-17 
6299.50 8.7636e-17 
6301.00 9.4686e-17 
6302.50 8.7425e-17 
6304.00 7.9848e-17 
6305.50 8.7322e-17 
6307.00 9.0943e-17 
6308.50 7.8598e-17 
6310.00 9.2419e-17 
6311.50 9.0105e-17 
6313.00 8.3082e-17 
6314.50 8.0383e-17 
6316.00 7.6804e-17 
6317.50 7.9502e-17 
6319.00 8.6984e-17 
6320.50 8.3667e-17 
6322.00 7.1908e-17 
6323.50 6.6626e-17 
6325.00 6.6775e-17 
6326.50 6.6986e-17 
6328.00 8.1610e-17 
6329.50 8.8042e-17 
6331.00 7.4146e-17 
6332.50 8.0082e-17 
6334.00 8.4188e-17 
6335.50 7.5278e-17 
6337.00 7.4850e-17 
6338.50 7.5970e-17 
6340.00 7.1935e-17 
6341.50 7.4642e-17 
6343.00 7.1880e-17 
6344.50 7.4119e-17 
6346.00 7.9319e-17 
6347.50 8.5508e-17 
6349.00 8.9437e-17 
6350.50 9.0255e-17 
6352.00 9.2023e-17 
6353.50 7.7568e-17 
6355.00 7.6857e-17 
6356.50 8.3874e-17 
6358.00 8.3823e-17 
6359.50 7.6598e-17 
6361.00 7.3434e-17 
6362.50 7.6950e-17 
6364.00 7.4382e-17 
6365.50 7.4261e-17 
6367.00 7.5456e-17 
6368.50 7.2854e-17 
6370.00 7.3242e-17 
6371.50 7.3347e-17 
6373.00 7.3332e-17 
6374.50 8.1568e-17 
6376.00 8.1594e-17 
6377.50 7.9274e-17 
6379.00 7.9269e-17 
6380.50 7.8295e-17 
6382.00 8.6325e-17 
6383.50 8.8461e-17 
6385.00 7.5504e-17 
6386.50 8.1824e-17 
6388.00 8.7947e-17 
6389.50 8.0818e-17 
6391.00 7.7803e-17 
6392.50 7.7213e-17 
6394.00 6.9610e-17 
6395.50 7.5092e-17 
6397.00 7.4667e-17 
6398.50 8.7169e-17 
6400.00 8.8323e-17 
6401.50 7.0911e-17 
6403.00 8.0425e-17 
6404.50 7.5735e-17 
6406.00 7.8829e-17 
6407.50 8.8030e-17 
6409.00 8.4616e-17 
6410.50 7.4945e-17 
6412.00 8.0244e-17 
6413.50 7.9204e-17 
6415.00 8.5811e-17 
6416.50 7.6633e-17 
6418.00 6.9483e-17 
6419.50 7.6733e-17 
6421.00 8.1770e-17 
6422.50 8.5848e-17 
6424.00 8.1274e-17 
6425.50 8.4419e-17 
6427.00 8.4544e-17 
6428.50 8.2100e-17 
6430.00 8.7139e-17 
6431.50 8.2354e-17 
6433.00 7.8949e-17 
6434.50 8.0262e-17 
6436.00 8.5383e-17 
6437.50 8.6387e-17 
6439.00 8.0762e-17 
6440.50 7.9498e-17 
6442.00 7.5948e-17 
6443.50 8.2742e-17 
6445.00 8.5141e-17 
6446.50 8.1661e-17 
6448.00 8.0308e-17 
6449.50 7.8582e-17 
6451.00 8.6736e-17 
6452.50 7.8773e-17 
6454.00 7.7771e-17 
6455.50 8.6359e-17 
6457.00 8.5646e-17 
6458.50 8.2819e-17 
6460.00 8.4727e-17 
6461.50 8.7843e-17 
6463.00 8.8553e-17 
6464.50 8.2541e-17 
6466.00 7.0622e-17 
6467.50 6.9828e-17 
6469.00 7.9457e-17 
6470.50 7.4721e-17 
6472.00 7.5749e-17 
6473.50 8.0918e-17 
6475.00 8.0542e-17 
6476.50 8.0654e-17 
6478.00 7.7555e-17 
6479.50 7.8099e-17 
6481.00 8.1857e-17 
6482.50 8.3212e-17 
6484.00 8.8079e-17 
6485.50 8.6910e-17 
6487.00 7.2494e-17 
6488.50 7.2070e-17 
6490.00 7.8405e-17 
6491.50 7.7905e-17 
6493.00 8.3955e-17 
6494.50 9.0452e-17 
6496.00 8.1017e-17 
6497.50 7.6421e-17 
6499.00 8.0747e-17 
6500.50 8.7972e-17 
6502.00 9.2820e-17 
6503.50 9.0502e-17 
6505.00 8.3321e-17 
6506.50 8.1543e-17 
6508.00 8.4136e-17 
6509.50 7.9581e-17 
6511.00 7.9480e-17 
6512.50 8.0533e-17 
6514.00 7.5965e-17 
6515.50 8.2447e-17 
6517.00 8.6894e-17 
6518.50 8.1695e-17 
6520.00 8.3558e-17 
6521.50 8.3108e-17 
6523.00 7.3871e-17 
6524.50 7.6008e-17 
6526.00 8.0203e-17 
6527.50 8.1438e-17 
6529.00 8.7574e-17 
6530.50 8.1986e-17 
6532.00 7.6513e-17 
6533.50 9.0312e-17 
6535.00 8.5415e-17 
6536.50 7.3910e-17 
6538.00 7.9319e-17 
6539.50 8.5254e-17 
6541.00 8.6807e-17 
6542.50 8.5174e-17 
6544.00 7.6672e-17 
6545.50 6.9437e-17 
6547.00 7.8277e-17 
6548.50 8.8419e-17 
6550.00 7.9187e-17 
6551.50 6.9686e-17 
6553.00 7.2888e-17 
6554.50 8.0932e-17 
6556.00 8.1201e-17 
6557.50 7.8349e-17 
6559.00 7.9208e-17 
6560.50 7.7564e-17 
6562.00 7.6423e-17 
6563.50 8.0911e-17 
6565.00 8.6602e-17 
6566.50 8.5205e-17 
6568.00 8.3629e-17 
6569.50 8.7179e-17 
6571.00 8.4148e-17 
6572.50 7.9396e-17 
6574.00 7.8744e-17 
6575.50 7.2129e-17 
6577.00 7.6145e-17 
6578.50 8.2851e-17 
6580.00 7.8862e-17 
6581.50 7.2041e-17 
6583.00 7.3951e-17 
6584.50 7.4898e-17 
6586.00 8.1936e-17 
6587.50 7.8624e-17 
6589.00 8.1687e-17 
6590.50 8.8706e-17 
6592.00 7.8844e-17 
6593.50 7.2671e-17 
6595.00 7.6039e-17 
6596.50 6.9492e-17 
6598.00 6.6197e-17 
6599.50 7.1271e-17 
6601.00 7.6204e-17 
6602.50 9.5636e-17 
6604.00 7.1678e-17 
6605.50 6.8889e-17 
6607.00 7.1875e-17 
6608.50 6.6082e-17 
6610.00 7.7479e-17 
6611.50 6.7047e-17 
6613.00 8.7654e-17 
6614.50 7.8632e-17 
6616.00 7.2804e-17 
6617.50 8.3527e-17 
6619.00 6.7541e-17 
6620.50 7.1267e-17 
6622.00 7.8418e-17 
6623.50 7.6519e-17 
6625.00 7.2190e-17 
6626.50 7.1695e-17 
6628.00 7.1578e-17 
6629.50 7.2954e-17 
6631.00 7.8082e-17 
6632.50 7.9639e-17 
6634.00 7.8679e-17 
6635.50 7.9758e-17 
6637.00 7.9631e-17 
6638.50 7.2070e-17 
6640.00 7.9432e-17 
6641.50 8.1579e-17 
6643.00 7.5485e-17 
6644.50 7.5141e-17 
6646.00 7.2126e-17 
6647.50 7.0252e-17 
6649.00 7.3310e-17 
6650.50 7.2865e-17 
6652.00 7.2269e-17 
6653.50 7.6647e-17 
6655.00 7.4678e-17 
6656.50 7.1756e-17 
6658.00 7.6346e-17 
6659.50 7.5065e-17 
6661.00 6.9042e-17 
6662.50 6.8762e-17 
6664.00 7.2831e-17 
6665.50 7.3778e-17 
6667.00 7.4415e-17 
6668.50 7.6446e-17 
6670.00 7.6111e-17 
6671.50 7.2857e-17 
6673.00 7.2107e-17 
6674.50 7.5564e-17 
6676.00 7.2950e-17 
6677.50 7.0447e-17 
6679.00 6.2417e-17 
6680.50 6.1083e-17 
6682.00 7.4110e-17 
6683.50 8.6088e-17 
6685.00 7.6808e-17 
6686.50 7.6269e-17 
6688.00 8.1131e-17 
6689.50 8.0858e-17 
6691.00 7.5411e-17 
6692.50 7.4047e-17 
6694.00 7.7625e-17 
6695.50 7.1270e-17 
6697.00 7.3861e-17 
6698.50 7.5421e-17 
6700.00 7.1133e-17 
6701.50 8.0811e-17 
6703.00 8.4983e-17 
6704.50 6.8670e-17 
6706.00 6.5403e-17 
6707.50 7.6649e-17 
6709.00 7.8235e-17 
6710.50 7.3298e-17 
6712.00 6.8904e-17 
6713.50 7.2297e-17 
6715.00 7.6655e-17 
6716.50 7.1311e-17 
6718.00 6.8734e-17 
6719.50 7.3112e-17 
6721.00 7.5912e-17 
6722.50 7.6828e-17 
6724.00 7.8891e-17 
6725.50 7.8984e-17 
6727.00 7.5982e-17 
6728.50 7.1958e-17 
6730.00 7.3056e-17 
6731.50 8.3177e-17 
6733.00 7.4400e-17 
6734.50 7.6025e-17 
6736.00 8.1463e-17 
6737.50 7.9085e-17 
6739.00 7.9082e-17 
6740.50 6.7144e-17 
6742.00 7.9844e-17 
6743.50 7.8954e-17 
6745.00 7.2255e-17 
6746.50 7.5674e-17 
6748.00 7.7198e-17 
6749.50 7.8899e-17 
6751.00 7.0871e-17 
6752.50 6.8848e-17 
6754.00 7.5585e-17 
6755.50 7.7013e-17 
6757.00 7.0488e-17 
6758.50 6.8686e-17 
6760.00 6.9178e-17 
6761.50 6.7200e-17 
6763.00 6.8809e-17 
6764.50 7.1507e-17 
6766.00 7.3337e-17 
6767.50 7.4703e-17 
6769.00 7.4450e-17 
6770.50 7.5832e-17 
6772.00 6.8283e-17 
6773.50 6.4797e-17 
6775.00 7.2352e-17 
6776.50 7.6174e-17 
6778.00 7.7941e-17 
6779.50 6.6385e-17 
6781.00 6.8978e-17 
6782.50 7.5241e-17 
6784.00 7.2550e-17 
6785.50 6.9306e-17 
6787.00 6.8350e-17 
6788.50 7.6870e-17 
6790.00 7.6310e-17 
6791.50 7.0551e-17 
6793.00 6.9576e-17 
6794.50 6.5677e-17 
6796.00 6.5860e-17 
6797.50 7.3488e-17 
6799.00 7.4817e-17 
6800.50 6.9961e-17 
6802.00 7.1928e-17 
6803.50 7.4838e-17 
6805.00 7.3160e-17 
6806.50 8.3628e-17 
6808.00 8.3682e-17 
6809.50 7.4989e-17 
6811.00 7.2399e-17 
6812.50 7.9065e-17 
6814.00 7.9224e-17 
6815.50 6.8280e-17 
6817.00 7.0750e-17 
6818.50 7.5074e-17 
6820.00 6.7677e-17 
6821.50 5.7747e-17 
6823.00 6.2198e-17 
6824.50 4.8794e-17 
6826.00 4.1113e-17 
6827.50 4.4953e-17 
6829.00 5.5671e-17 
6830.50 6.9428e-17 
6832.00 7.6021e-17 
6833.50 7.0881e-17 
6835.00 7.0237e-17 
6836.50 7.7653e-17 
6838.00 7.2603e-17 
6839.50 6.8103e-17 
6841.00 6.8787e-17 
6842.50 6.2524e-17 
6844.00 7.6513e-17 
6845.50 6.5012e-17 
6847.00 7.0931e-17 
6848.50 7.7237e-17 
6850.00 6.5058e-17 
6851.50 6.5954e-17 
6853.00 7.0420e-17 
6854.50 6.6990e-17 
6856.00 6.9204e-17 
6857.50 7.5438e-17 
6859.00 7.5241e-17 
6860.50 7.0437e-17 
6862.00 7.3067e-17 
6863.50 7.8243e-17 
6865.00 7.7572e-17 
6866.50 7.3500e-17 
6868.00 6.7152e-17 
6869.50 6.7127e-17 
6871.00 7.5193e-17 
6872.50 6.5690e-17 
6874.00 7.0886e-17 
6875.50 6.7111e-17 
6877.00 6.3656e-17 
6878.50 7.0387e-17 
6880.00 6.6985e-17 
6881.50 7.5567e-17 
6883.00 7.6861e-17 
6884.50 7.4998e-17 
6886.00 7.1619e-17 
6887.50 6.8654e-17 
6889.00 7.2652e-17 
6890.50 7.6238e-17 
6892.00 7.5642e-17 
6893.50 7.4809e-17 
6895.00 7.5595e-17 
6896.50 7.8589e-17 
6898.00 7.5571e-17 
6899.50 6.7062e-17 
6901.00 8.5178e-17 
6902.50 7.3516e-17 
6904.00 6.5242e-17 
6905.50 6.8019e-17 
6907.00 6.8354e-17 
6908.50 7.0232e-17 
6910.00 7.0984e-17 
6911.50 6.0765e-17 
6913.00 4.8456e-17 
6914.50 4.2438e-17 
6916.00 4.4707e-17 
6917.50 5.3806e-17 
6919.00 6.5114e-17 
6920.50 7.2515e-17 
6922.00 7.1057e-17 
6923.50 6.3803e-17 
6925.00 6.7233e-17 
6926.50 7.9204e-17 
6928.00 7.4405e-17 
6929.50 7.2441e-17 
6931.00 6.7371e-17 
6932.50 6.5951e-17 
6934.00 6.4057e-17 
6935.50 5.5244e-17 
6937.00 4.1547e-17 
6938.50 3.5436e-17 
6940.00 4.3867e-17 
6941.50 5.9962e-17 
6943.00 7.0754e-17 
6944.50 7.1493e-17 
6946.00 7.0802e-17 
6947.50 7.3922e-17 
6949.00 7.2229e-17 
6950.50 7.2458e-17 
6952.00 7.1438e-17 
6953.50 7.1089e-17 
6955.00 7.4480e-17 
6956.50 7.4927e-17 
6958.00 6.7736e-17 
6959.50 6.8053e-17 
6961.00 6.9276e-17 
6962.50 6.7035e-17 
6964.00 6.6362e-17 
6965.50 7.3395e-17 
6967.00 7.7425e-17 
6968.50 7.4864e-17 
6970.00 7.5471e-17 
6971.50 7.8142e-17 
6973.00 7.8958e-17 
6974.50 7.3139e-17 
6976.00 6.2440e-17 
6977.50 7.9166e-17 
6979.00 8.4707e-17 
6980.50 7.1990e-17 
6982.00 6.6883e-17 
6983.50 7.4140e-17 
6985.00 7.0221e-17 
6986.50 6.7784e-17 
6988.00 6.9219e-17 
6989.50 6.7905e-17 
6991.00 6.6559e-17 
6992.50 7.1448e-17 
6994.00 7.6287e-17 
6995.50 7.1669e-17 
6997.00 7.5748e-17 
6998.50 6.9482e-17 
7000.00 7.3847e-17 
7001.50 7.6184e-17 
7003.00 6.9101e-17 
7004.50 7.3489e-17 
7006.00 7.2159e-17 
7007.50 7.1258e-17 
7009.00 6.7729e-17 
7010.50 6.2400e-17 
7012.00 6.3806e-17 
7013.50 7.4776e-17 
7015.00 8.2906e-17 
7016.50 7.4532e-17 
7018.00 6.5331e-17 
7019.50 7.1226e-17 
7021.00 7.5132e-17 
7022.50 6.6324e-17 
7024.00 6.8377e-17 
7025.50 6.2357e-17 
7027.00 7.2856e-17 
7028.50 7.9175e-17 
7030.00 7.3561e-17 
7031.50 6.7724e-17 
7033.00 6.9536e-17 
7034.50 7.2761e-17 
7036.00 7.3649e-17 
7037.50 7.9502e-17 
7039.00 7.0597e-17 
7040.50 6.5067e-17 
7042.00 7.8878e-17 
7043.50 7.1686e-17 
7045.00 6.4014e-17 
7046.50 6.5627e-17 
7048.00 6.8410e-17 
7049.50 6.9462e-17 
7051.00 7.0607e-17 
7052.50 7.2078e-17 
7054.00 7.4351e-17 
7055.50 7.5083e-17 
7057.00 6.8330e-17 
7058.50 6.9361e-17 
7060.00 7.6222e-17 
7061.50 7.8824e-17 
7063.00 7.8172e-17 
7064.50 6.3934e-17 
7066.00 7.1186e-17 
7067.50 7.9330e-17 
7069.00 7.7387e-17 
7070.50 7.0996e-17 
7072.00 6.7231e-17 
7073.50 6.7391e-17 
7075.00 6.9976e-17 
7076.50 7.1348e-17 
7078.00 6.2890e-17 
7079.50 5.9437e-17 
7081.00 6.9652e-17 
7082.50 6.6050e-17 
7084.00 7.0356e-17 
7085.50 7.1285e-17 
7087.00 6.9468e-17 
7088.50 6.6562e-17 
7090.00 6.3280e-17 
7091.50 6.1314e-17 
7093.00 6.1672e-17 
7094.50 6.3991e-17 
7096.00 7.0212e-17 
7097.50 6.5671e-17 
7099.00 6.4207e-17 
7100.50 7.3277e-17 
7102.00 6.6014e-17 
7103.50 6.6636e-17 
7105.00 6.9455e-17 
7106.50 7.2084e-17 
7108.00 7.3672e-17 
7109.50 7.3049e-17 
7111.00 7.1034e-17 
7112.50 7.2125e-17 
7114.00 7.8475e-17 
7115.50 7.0297e-17 
7117.00 6.8912e-17 
7118.50 6.8902e-17 
7120.00 6.3183e-17 
7121.50 6.7939e-17 
7123.00 7.0718e-17 
7124.50 7.1457e-17 
7126.00 7.1028e-17 
7127.50 7.0299e-17 
7129.00 7.1310e-17 
7130.50 7.2502e-17 
7132.00 6.8745e-17 
7133.50 6.9274e-17 
7135.00 6.6343e-17 
7136.50 6.9150e-17 
7138.00 7.0101e-17 
7139.50 6.6893e-17 
7141.00 6.9448e-17 
7142.50 6.9729e-17 
7144.00 6.8695e-17 
7145.50 7.0873e-17 
7147.00 7.0953e-17 
7148.50 6.9935e-17 
7150.00 7.2186e-17 
7151.50 7.6152e-17 
7153.00 8.4301e-17 
7154.50 7.5911e-17 
7156.00 7.0874e-17 
7157.50 7.2423e-17 
7159.00 7.3520e-17 
7160.50 7.1779e-17 
7162.00 7.1370e-17 
7163.50 7.2903e-17 
7165.00 6.8959e-17 
7166.50 6.7377e-17 
7168.00 6.9437e-17 
7169.50 6.9830e-17 
7171.00 7.0480e-17 
7172.50 7.1118e-17 
7174.00 6.7618e-17 
7175.50 6.8721e-17 
7177.00 7.2559e-17 
7178.50 7.0546e-17 
7180.00 6.6279e-17 
7181.50 7.4786e-17 
7183.00 7.4178e-17 
7184.50 6.3085e-17 
7186.00 6.7799e-17 
7187.50 7.3009e-17 
7189.00 6.9115e-17 
7190.50 7.0490e-17 
7192.00 7.1288e-17 
7193.50 6.9589e-17 
7195.00 6.8442e-17 
7196.50 6.6543e-17 
7198.00 6.8808e-17 
7199.50 7.7134e-17 
7201.00 7.3341e-17 
7202.50 6.5970e-17 
7204.00 6.7323e-17 
7205.50 7.1907e-17 
7207.00 7.3653e-17 
7208.50 7.0733e-17 
7210.00 6.6368e-17 
7211.50 6.6270e-17 
7213.00 7.2278e-17 
7214.50 7.2184e-17 
7216.00 6.7650e-17 
7217.50 6.7036e-17 
7219.00 6.8618e-17 
7220.50 6.6530e-17 
7222.00 6.8410e-17 
7223.50 7.2557e-17 
7225.00 7.6150e-17 
7226.50 7.7246e-17 
7228.00 7.2635e-17 
7229.50 6.8184e-17 
7231.00 8.4748e-17 
7232.50 7.2597e-17 
7234.00 7.3051e-17 
7235.50 7.5553e-17 
7237.00 7.4788e-17 
7238.50 7.2491e-17 
7240.00 7.0210e-17 
7241.50 6.7678e-17 
7243.00 7.1404e-17 
7244.50 1.0423e-16 
7246.00 8.3660e-17 
7247.50 4.1551e-17 
7249.00 4.5121e-17 
7250.50 5.8107e-17 
7252.00 6.5587e-17 
7253.50 7.0361e-17 
7255.00 7.5921e-17 
7256.50 7.8707e-17 
7258.00 7.3453e-17 
7259.50 6.4964e-17 
7261.00 7.5065e-17 
7262.50 7.0873e-17 
7264.00 7.8833e-17 
7265.50 7.8751e-17 
7267.00 7.2724e-17 
7268.50 7.2051e-17 
7270.00 7.6785e-17 
7271.50 7.5100e-17 
7273.00 6.3668e-17 
7274.50 6.6064e-17 
7276.00 7.2817e-17 
7277.50 8.3701e-17 
7279.00 9.4001e-17 
7280.50 8.4718e-17 
7282.00 7.6342e-17 
7283.50 7.1736e-17 
7285.00 6.7984e-17 
7286.50 7.3975e-17 
7288.00 7.8684e-17 
7289.50 6.8237e-17 
7291.00 7.5535e-17 
7292.50 7.9022e-17 
7294.00 7.4600e-17 
7295.50 6.9896e-17 
7297.00 6.8505e-17 
7298.50 6.8533e-17 
7300.00 6.7076e-17 
7301.50 6.5794e-17 
7303.00 7.0845e-17 
7304.50 5.8974e-17 
7306.00 7.0326e-17 
7307.50 8.0523e-17 
7309.00 7.2336e-17 
7310.50 6.9383e-17 
7312.00 7.2865e-17 
7313.50 6.9190e-17 
7315.00 6.8907e-17 
7316.50 5.2084e-17 
7318.00 5.3056e-17 
7319.50 8.0633e-17 
7321.00 6.5910e-17 
7322.50 6.1561e-17 
7324.00 6.4939e-17 
7325.50 6.7988e-17 
7327.00 7.0366e-17 
7328.50 6.9747e-17 
7330.00 7.0090e-17 
7331.50 9.3184e-17 
7333.00 6.2755e-17 
7334.50 6.2663e-17 
7336.00 7.1042e-17 
7337.50 7.1182e-17 
7339.00 6.5844e-17 
7340.50 6.8758e-17 
7342.00 8.4168e-17 
7343.50 8.3822e-17 
7345.00 8.2660e-17 
7346.50 7.2776e-17 
7348.00 6.5204e-17 
7349.50 6.7996e-17 
7351.00 7.2478e-17 
7352.50 7.3884e-17 
7354.00 7.2986e-17 
7355.50 6.6585e-17 
7357.00 6.2355e-17 
7358.50 6.6873e-17 
7360.00 6.9713e-17 
7361.50 6.2799e-17 
7363.00 6.6250e-17 
7364.50 7.1265e-17 
7366.00 7.2707e-17 
7367.50 7.8495e-17 
7369.00 8.0973e-17 
7370.50 7.1068e-17 
7372.00 8.1853e-17 
7373.50 6.2121e-17 
7375.00 6.6148e-17 
7376.50 6.6675e-17 
7378.00 5.8326e-17 
7379.50 6.0393e-17 
7381.00 8.0669e-17 
7382.50 5.7646e-17 
7384.00 5.1771e-17 
7385.50 6.5107e-17 
7387.00 7.0854e-17 
7388.50 7.1665e-17 
7390.00 7.2987e-17 
7391.50 7.1870e-17 
7393.00 6.8638e-17 
7394.50 8.9768e-17 
7396.00 6.6268e-17 
7397.50 7.1461e-17 
7399.00 8.5374e-17 
7400.50 7.5609e-17 
7402.00 6.8883e-17 
7403.50 7.5470e-17 
7405.00 7.9751e-17 
7406.50 6.2618e-17 
7408.00 6.1528e-17 
7409.50 7.6391e-17 
7411.00 7.6964e-17 
7412.50 7.9562e-17 
7414.00 7.8166e-17 
7415.50 7.5442e-17 
7417.00 7.3094e-17 
7418.50 6.7064e-17 
7420.00 6.3579e-17 
7421.50 7.1265e-17 
7423.00 6.8580e-17 
7424.50 6.9292e-17 
7426.00 6.8940e-17 
7427.50 7.0386e-17 
7429.00 7.4241e-17 
7430.50 7.4883e-17 
7432.00 6.5417e-17 
7433.50 5.9976e-17 
7435.00 7.5012e-17 
7436.50 7.7420e-17 
7438.00 7.4225e-17 
7439.50 7.2607e-17 
7441.00 7.4168e-17 
7442.50 7.4372e-17 
7444.00 6.6972e-17 
7445.50 6.1978e-17 
7447.00 7.4452e-17 
7448.50 7.9538e-17 
7450.00 7.5595e-17 
7451.50 6.9961e-17 
7453.00 6.7973e-17 
7454.50 6.8890e-17 
7456.00 6.8544e-17 
7457.50 7.4476e-17 
7459.00 7.0799e-17 
7460.50 6.5285e-17 
7462.00 6.7311e-17 
7463.50 7.3410e-17 
7465.00 7.3373e-17 
7466.50 6.3078e-17 
7468.00 7.0238e-17 
7469.50 7.6995e-17 
7471.00 7.1409e-17 
7472.50 6.8445e-17 
7474.00 7.5217e-17 
7475.50 7.9880e-17 
7477.00 7.4927e-17 
7478.50 6.8568e-17 
7480.00 6.5361e-17 
7481.50 6.9783e-17 
7483.00 7.4624e-17 
7484.50 6.8339e-17 
7486.00 6.2608e-17 
7487.50 6.5740e-17 
7489.00 7.3602e-17 
7490.50 6.8735e-17 
7492.00 6.1247e-17 
7493.50 7.6447e-17 
7495.00 8.2200e-17 
7496.50 7.9322e-17 
7498.00 7.3001e-17 
7499.50 6.9153e-17 
7501.00 7.0246e-17 
7502.50 7.0438e-17 
7504.00 6.0717e-17 
7505.50 5.9213e-17 
7507.00 6.4977e-17 
7508.50 6.3690e-17 
7510.00 6.0657e-17 
7511.50 6.2355e-17 
7513.00 6.5606e-17 
7514.50 6.4157e-17 
7516.00 8.2743e-17 
7517.50 7.8379e-17 
7519.00 7.7125e-17 
7520.50 7.5026e-17 
7522.00 7.1875e-17 
7523.50 7.3725e-17 
7525.00 8.8329e-17 
7526.50 8.9773e-17 
7528.00 7.1226e-17 
7529.50 5.0990e-17 
7531.00 3.6114e-17 
7532.50 3.2072e-17 
7534.00 4.1224e-17 
7535.50 6.1050e-17 
7537.00 7.7214e-17 
7538.50 6.6137e-17 
7540.00 6.6729e-17 
7541.50 6.8000e-17 
7543.00 6.7483e-17 
7544.50 6.7527e-17 
7546.00 7.0993e-17 
7547.50 7.0285e-17 
7549.00 6.3716e-17 
7550.50 6.7121e-17 
7552.00 6.4854e-17 
7553.50 6.1229e-17 
7555.00 6.1950e-17 
7556.50 6.5918e-17 
7558.00 5.6705e-17 
7559.50 7.4309e-17 
7561.00 6.6689e-17 
7562.50 6.3298e-17 
7564.00 6.6474e-17 
7565.50 6.8435e-17 
7567.00 6.3233e-17 
7568.50 5.5136e-17 
7570.00 4.3014e-17 
7571.50 2.2349e-17 
7573.00 3.9075e-17 
7574.50 6.6939e-17 
7576.00 7.7263e-17 
7577.50 6.8512e-17 
7579.00 7.2247e-17 
7580.50 7.4335e-17 
7582.00 7.0975e-17 
7583.50 6.7489e-17 
7585.00 6.8715e-17 
7586.50 7.4295e-17 
7588.00 7.8209e-17 
7589.50 7.1725e-17 
7591.00 5.9226e-17 
7592.50 6.3240e-17 
7594.00 7.3008e-17 
7595.50 7.8596e-17 
7597.00 7.6265e-17 
7598.50 6.7925e-17 
7600.00 6.0747e-17 
7601.50 6.8258e-17 
7603.00 6.1023e-17 
7604.50 6.1002e-17 
7606.00 6.7389e-17 
7607.50 7.2091e-17 
7609.00 7.1594e-17 
7610.50 6.9231e-17 
7612.00 6.7813e-17 
7613.50 8.0029e-17 
7615.00 8.0835e-17 
7616.50 7.4591e-17 
7618.00 7.1268e-17 
7619.50 7.4548e-17 
7621.00 7.7900e-17 
7622.50 6.4994e-17 
7624.00 7.1700e-17 
7625.50 7.6660e-17 
7627.00 7.8035e-17 
7628.50 7.7801e-17 
7630.00 7.4336e-17 
7631.50 6.1263e-17 
7633.00 7.7899e-17 
7634.50 7.0305e-17 
7636.00 6.1547e-17 
7637.50 6.2732e-17 
7639.00 7.0766e-17 
7640.50 7.5331e-17 
7642.00 6.2929e-17 
7643.50 5.9604e-17 
7645.00 6.0775e-17 
7646.50 6.6525e-17 
7648.00 7.2917e-17 
7649.50 7.4934e-17 
7651.00 7.0046e-17 
7652.50 6.4570e-17 
7654.00 8.7338e-17 
7655.50 7.0624e-17 
7657.00 6.4440e-17 
7658.50 6.9280e-17 
7660.00 7.3293e-17 
7661.50 6.4410e-17 
7663.00 8.2120e-17 
7664.50 7.7535e-17 
7666.00 7.2042e-17 
7667.50 7.0344e-17 
7669.00 7.0122e-17 
7670.50 6.8506e-17 
7672.00 6.4689e-17 
7673.50 7.1238e-17 
7675.00 6.5136e-17 
7676.50 6.3671e-17 
7678.00 6.3653e-17 
7679.50 6.3830e-17 
7681.00 6.4401e-17 
7682.50 6.7720e-17 
7684.00 6.5784e-17 
7685.50 6.8096e-17 
7687.00 6.8714e-17 
7688.50 6.8446e-17 
7690.00 6.8539e-17 
7691.50 6.9727e-17 
7693.00 6.9946e-17 
7694.50 6.7241e-17 
7696.00 6.6122e-17 
7697.50 7.1388e-17 
7699.00 7.5734e-17 
7700.50 7.1760e-17 
7702.00 6.4578e-17 
7703.50 7.3718e-17 
7705.00 7.1318e-17 
7706.50 6.5842e-17 
7708.00 6.1960e-17 
7709.50 6.1635e-17 
7711.00 6.3807e-17 
7712.50 6.5515e-17 
7714.00 6.5143e-17 
7715.50 6.6153e-17 
7717.00 6.8119e-17 
7718.50 6.4098e-17 
7720.00 5.2130e-17 
7721.50 6.1179e-17 
7723.00 7.5502e-17 
7724.50 6.2314e-17 
7726.00 6.4542e-17 
7727.50 7.3146e-17 
7729.00 7.5801e-17 
7730.50 6.6071e-17 
7732.00 7.1697e-17 
7733.50 7.6582e-17 
7735.00 6.7352e-17 
7736.50 6.7550e-17 
7738.00 7.3224e-17 
7739.50 6.5196e-17 
7741.00 7.0650e-17 
7742.50 6.9871e-17 
7744.00 6.7337e-17 
7745.50 7.0537e-17 
7747.00 7.0305e-17 
7748.50 6.0328e-17 
7750.00 6.5620e-17 
7751.50 7.2842e-17 
7753.00 6.5822e-17 
7754.50 5.7516e-17 
7756.00 5.6869e-17 
7757.50 6.4991e-17 
7759.00 6.9323e-17 
7760.50 6.0035e-17 
7762.00 6.0916e-17 
7763.50 6.4132e-17 
7765.00 6.6489e-17 
7766.50 6.6629e-17 
7768.00 6.5116e-17 
7769.50 6.1809e-17 
7771.00 6.9570e-17 
7772.50 6.3886e-17 
7774.00 5.9451e-17 
7775.50 6.2273e-17 
7777.00 7.1202e-17 
7778.50 6.6813e-17 
7780.00 5.9986e-17 
7781.50 6.9194e-17 
7783.00 7.4497e-17 
7784.50 7.3293e-17 
7786.00 6.9885e-17 
7787.50 6.5489e-17 
7789.00 6.0717e-17 
7790.50 7.2752e-17 
7792.00 7.3612e-17 
7793.50 7.1686e-17 
7795.00 7.9166e-17 
7796.50 7.2561e-17 
7798.00 5.9121e-17 
7799.50 6.6536e-17 
7801.00 6.4798e-17 
7802.50 5.8016e-17 
7804.00 5.6283e-17 
7805.50 6.6352e-17 
7807.00 6.5620e-17 
7808.50 6.2651e-17 
7810.00 6.8508e-17 
7811.50 7.5404e-17 
7813.00 7.4471e-17 
7814.50 6.3763e-17 
7816.00 6.7673e-17 
7817.50 6.4293e-17 
7819.00 6.1914e-17 
7820.50 6.8604e-17 
7822.00 8.4976e-17 
7823.50 8.4591e-17 
7825.00 7.7950e-17 
7826.50 7.1926e-17 
7828.00 6.6363e-17 
7829.50 6.2475e-17 
7831.00 6.1483e-17 
7832.50 6.5273e-17 
7834.00 6.7925e-17 
7835.50 6.6447e-17 
7837.00 6.1263e-17 
7838.50 6.0020e-17 
7840.00 6.8607e-17 
7841.50 7.7403e-17 
7843.00 6.1604e-17 
7844.50 6.1585e-17 
7846.00 5.9956e-17 
7847.50 5.9461e-17 
7849.00 6.5256e-17 
7850.50 6.2949e-17 
7852.00 6.1507e-17 
7853.50 7.4808e-17 
7855.00 7.9744e-17 
7856.50 7.2084e-17 
7858.00 5.6477e-17 
7859.50 6.0344e-17 
7861.00 7.0808e-17 
7862.50 7.3465e-17 
7864.00 7.0634e-17 
7865.50 6.6163e-17 
7867.00 6.5823e-17 
7868.50 7.1435e-17 
7870.00 6.9991e-17 
7871.50 6.3983e-17 
7873.00 5.8621e-17 
7874.50 5.7672e-17 
7876.00 6.4311e-17 
7877.50 6.3296e-17 
7879.00 5.8301e-17 
7880.50 6.0843e-17 
7882.00 6.5179e-17 
7883.50 6.7017e-17 
7885.00 6.7681e-17 
7886.50 7.3744e-17 
7888.00 6.1956e-17 
7889.50 6.5719e-17 
7891.00 7.7047e-17 
7892.50 8.1488e-17 
7894.00 6.7740e-17 
7895.50 5.7350e-17 
7897.00 6.1018e-17 
7898.50 6.5004e-17 
7900.00 6.7179e-17 
7901.50 6.9901e-17 
7903.00 6.1174e-17 
7904.50 6.7346e-17 
7906.00 7.5726e-17 
7907.50 7.5927e-17 
7909.00 6.7928e-17 
7910.50 6.7869e-17 
7912.00 6.2978e-17 
7913.50 5.4565e-17 
7915.00 4.5986e-17 
7916.50 4.4151e-17 
7918.00 5.4598e-17 
7919.50 8.0372e-17 
7921.00 6.5021e-17 
7922.50 7.5256e-17 
7924.00 8.0748e-17 
7925.50 7.5256e-17 
7927.00 6.1716e-17 
7928.50 5.7860e-17 
7930.00 6.7737e-17 
7931.50 7.5100e-17 
7933.00 7.6974e-17 
7934.50 7.3508e-17 
7936.00 7.1414e-17 
7937.50 6.6645e-17 
7939.00 6.0694e-17 
7940.50 5.9304e-17 
7942.00 6.4361e-17 
7943.50 7.5488e-17 
7945.00 6.8017e-17 
7946.50 7.0090e-17 
7948.00 7.2217e-17 
7949.50 7.2294e-17 
7951.00 7.0727e-17 
7952.50 7.1666e-17 
7954.00 7.0318e-17 
7955.50 6.0270e-17 
7957.00 6.2107e-17 
7958.50 6.7537e-17 
7960.00 6.5509e-17 
7961.50 5.6935e-17 
7963.00 6.5732e-17 
7964.50 5.3487e-17 
7966.00 5.6599e-17 
7967.50 7.3212e-17 
7969.00 5.5106e-17 
7970.50 4.9669e-17 
7972.00 6.5554e-17 
7973.50 6.7206e-17 
7975.00 6.0516e-17 
7976.50 5.6559e-17 
7978.00 6.2500e-17 
7979.50 6.6423e-17 
7981.00 6.8113e-17 
7982.50 6.8835e-17 
7984.00 6.8808e-17 
7985.50 6.6818e-17 
7987.00 5.7892e-17 
7988.50 5.9206e-17 
7990.00 6.0756e-17 
7991.50 6.1259e-17 
7993.00 6.0795e-17 
7994.50 6.8165e-17 
7996.00 7.4719e-17 
7997.50 6.5273e-17 
7999.00 5.9446e-17 
8000.50 6.7419e-17 
8002.00 7.7035e-17 
8003.50 6.5692e-17 
8005.00 5.7170e-17 
8006.50 6.0171e-17 
8008.00 6.9082e-17 
8009.50 6.4971e-17 
8011.00 6.3081e-17 
8012.50 6.3481e-17 
8014.00 6.2284e-17 
8015.50 6.1410e-17 
8017.00 6.3258e-17 
8018.50 7.1669e-17 
8020.00 5.9841e-17 
8021.50 5.7810e-17 
8023.00 6.1117e-17 
8024.50 6.5669e-17 
8026.00 6.0856e-17 
8027.50 5.3859e-17 
8029.00 5.9118e-17 
8030.50 6.6378e-17 
8032.00 7.0909e-17 
8033.50 6.6702e-17 
8035.00 6.2828e-17 
8036.50 5.9231e-17 
8038.00 5.7828e-17 
8039.50 5.9224e-17 
8041.00 6.3592e-17 
8042.50 4.9098e-17 
8044.00 5.1125e-17 
8045.50 5.3969e-17 
8047.00 5.7646e-17 
8048.50 6.2197e-17 
8050.00 6.9514e-17 
8051.50 7.2677e-17 
8053.00 7.2656e-17 
8054.50 7.0330e-17 
8056.00 6.6838e-17 
8057.50 6.5809e-17 
8059.00 6.4764e-17 
8060.50 6.2994e-17 
8062.00 6.3246e-17 
8063.50 6.6486e-17 
8065.00 7.4161e-17 
8066.50 6.1676e-17 
8068.00 5.6610e-17 
8069.50 5.4302e-17 
8071.00 5.4537e-17 
8072.50 5.7397e-17 
8074.00 6.6021e-17 
8075.50 5.8620e-17 
8077.00 6.0779e-17 
8078.50 6.5861e-17 
8080.00 6.6633e-17 
8081.50 6.4027e-17 
8083.00 6.3969e-17 
8084.50 6.4130e-17 
8086.00 6.6240e-17 
8087.50 7.0378e-17 
8089.00 6.2509e-17 
8090.50 6.5658e-17 
8092.00 6.5276e-17 
8093.50 6.3611e-17 
8095.00 6.2937e-17 
8096.50 7.3715e-17 
8098.00 6.2140e-17 
8099.50 6.4192e-17 
8101.00 6.8270e-17 
8102.50 6.9224e-17 
8104.00 5.8372e-17 
8105.50 5.2864e-17 
8107.00 6.3599e-17 
8108.50 7.2496e-17 
8110.00 7.4483e-17 
8111.50 6.6496e-17 
8113.00 7.0347e-17 
8114.50 7.0925e-17 
8116.00 6.8020e-17 
8117.50 6.3690e-17 
8119.00 6.4261e-17 
8120.50 6.2427e-17 
8122.00 6.4662e-17 
8123.50 6.3734e-17 
8125.00 5.9964e-17 
8126.50 5.6384e-17 
8128.00 6.3599e-17 
8129.50 6.9809e-17 
8131.00 6.5541e-17 
8132.50 5.9750e-17 
8134.00 7.6919e-17 
8135.50 5.7814e-17 
8137.00 4.7881e-17 
8138.50 4.3845e-17 
8140.00 3.8256e-17 
8141.50 1.3063e-17 
8143.00 1.7811e-17 
8144.50 2.8979e-17 
8146.00 4.0573e-17 
8147.50 5.2192e-17 
8149.00 6.5836e-17 
8150.50 7.2665e-17 
8152.00 6.5254e-17 
8153.50 5.9636e-17 
8155.00 5.7185e-17 
8156.50 5.7300e-17 
8158.00 4.7628e-17 
8159.50 3.9445e-17 
8161.00 3.2887e-17 
8162.50 2.7763e-17 
8164.00 2.2494e-17 
8165.50 2.9747e-17 
8167.00 4.6782e-17 
8168.50 5.9004e-17 
8170.00 6.3491e-17 
8171.50 5.7784e-17 
8173.00 6.1422e-17 
8174.50 7.4267e-17 
8176.00 7.3304e-17 
8177.50 5.9739e-17 
8179.00 5.3567e-17 
8180.50 5.2577e-17 
8182.00 6.1164e-17 
8183.50 7.1292e-17 
8185.00 7.8070e-17 
8186.50 6.4904e-17 
8188.00 5.6422e-17 
8189.50 5.8769e-17 
8191.00 6.0946e-17 
8192.50 5.9324e-17 
8194.00 5.0999e-17 
8195.50 5.1921e-17 
8197.00 6.0694e-17 
8198.50 6.6610e-17 
8200.00 6.4963e-17 
8201.50 6.7005e-17 
8203.00 5.9980e-17 
8204.50 6.1954e-17 
8206.00 6.8852e-17 
8207.50 7.8072e-17 
8209.00 6.1361e-17 
8210.50 5.6444e-17 
8212.00 5.6065e-17 
8213.50 5.8544e-17 
8215.00 6.2395e-17 
8216.50 6.2062e-17 
8218.00 6.1545e-17 
8219.50 6.3280e-17 
8221.00 6.4472e-17 
8222.50 5.8700e-17 
8224.00 5.9695e-17 
8225.50 6.3774e-17 
8227.00 6.6810e-17 
8228.50 6.8492e-17 
8230.00 7.0039e-17 
8231.50 6.9211e-17 
8233.00 5.3397e-17 
8234.50 5.2788e-17 
8236.00 7.0833e-17 
8237.50 5.8737e-17 
8239.00 5.3545e-17 
8240.50 6.3072e-17 
8242.00 7.0221e-17 
8243.50 6.5365e-17 
8245.00 5.3300e-17 
8246.50 5.6808e-17 
8248.00 6.0187e-17 
8249.50 6.2249e-17 
8251.00 6.1175e-17 
8252.50 5.5936e-17 
8254.00 5.0875e-17 
8255.50 4.8046e-17 
8257.00 4.9947e-17 
8258.50 6.5739e-17 
8260.00 6.3156e-17 
8261.50 5.9237e-17 
8263.00 5.7742e-17 
8264.50 5.8931e-17 
8266.00 5.5845e-17 
8267.50 5.9029e-17 
8269.00 6.2861e-17 
8270.50 6.3402e-17 
8272.00 5.7688e-17 
8273.50 5.1851e-17 
8275.00 5.2337e-17 
8276.50 5.0855e-17 
8278.00 4.9611e-17 
8279.50 5.2750e-17 
8281.00 7.3281e-17 
8282.50 7.2816e-17 
8284.00 6.8220e-17 
8285.50 6.2487e-17 
8287.00 6.0892e-17 
8288.50 5.7011e-17 
8290.00 6.4194e-17 
8291.50 6.9338e-17 
8293.00 6.6185e-17 
8294.50 5.1128e-17 
8296.00 4.3165e-17 
8297.50 4.0242e-17 
8299.00 4.2009e-17 
8300.50 4.9998e-17 
8302.00 6.6443e-17 
8303.50 6.1691e-17 
8305.00 5.7508e-17 
8306.50 5.5770e-17 
8308.00 5.0750e-17 
8309.50 4.5524e-17 
8311.00 5.1540e-17 
8312.50 5.8449e-17 
8314.00 6.0762e-17 
8315.50 6.1342e-17 
8317.00 5.8414e-17 
8318.50 5.6010e-17 
8320.00 5.4480e-17 
8321.50 5.4742e-17 
8323.00 5.4301e-17 
8324.50 5.5505e-17 
8326.00 5.8162e-17 
8327.50 6.1615e-17 
8329.00 5.5126e-17 
8330.50 5.6420e-17 
8332.00 5.8932e-17 
8333.50 5.8208e-17 
8335.00 4.7275e-17 
8336.50 5.7280e-17 
8338.00 6.4106e-17 
8339.50 6.4183e-17 
8341.00 5.8620e-17 
8342.50 5.6536e-17 
8344.00 5.6759e-17 
8345.50 5.1511e-17 
8347.00 5.4943e-17 
8348.50 7.9446e-17 
8350.00 7.3041e-17 
8351.50 6.0388e-17 
8353.00 6.0517e-17 
8354.50 7.0599e-17 
8356.00 8.1241e-17 
8357.50 5.0227e-17 
8359.00 5.0962e-17 
8360.50 5.6785e-17 
8362.00 5.8001e-17 
8363.50 6.5869e-17 
8365.00 7.1734e-17 
8366.50 7.3114e-17 
8368.00 7.0504e-17 
8369.50 6.3019e-17 
8371.00 6.0176e-17 
8372.50 6.4212e-17 
8374.00 6.5773e-17 
8375.50 6.0881e-17 
8377.00 6.0024e-17 
8378.50 6.3355e-17 
8380.00 6.0715e-17 
8381.50 5.6883e-17 
8383.00 6.7208e-17 
8384.50 6.5361e-17 
8386.00 6.0207e-17 
8387.50 5.6236e-17 
8389.00 5.5664e-17 
8390.50 6.4796e-17 
8392.00 6.9407e-17 
8393.50 6.6740e-17 
8395.00 6.0077e-17 
8396.50 5.9541e-17 
8398.00 5.5573e-17 
8399.50 6.3328e-17 
8401.00 7.5222e-17 
8402.50 8.9079e-17 
8404.00 6.4905e-17 
8405.50 5.2156e-17 
8407.00 5.3890e-17 
8408.50 6.4436e-17 
8410.00 5.1048e-17 
8411.50 4.8071e-17 
8413.00 5.6098e-17 
8414.50 6.2408e-17 
8416.00 5.5118e-17 
8417.50 6.5265e-17 
8419.00 5.4205e-17 
8420.50 5.0583e-17 
8422.00 5.7043e-17 
8423.50 6.4788e-17 
8425.00 5.6177e-17 
8426.50 5.3522e-17 
8428.00 5.5207e-17 
8429.50 6.2841e-17 
8431.00 6.5461e-17 
8432.50 7.3997e-17 
8434.00 7.7089e-17 
8435.50 7.0233e-17 
8437.00 4.8440e-17 
8438.50 5.6035e-17 
8440.00 5.6110e-17 
8441.50 5.2001e-17 
8443.00 5.8538e-17 
8444.50 5.8056e-17 
8446.00 5.7715e-17 
8447.50 5.7480e-17 
8449.00 5.7414e-17 
8450.50 4.8034e-17 
8452.00 5.4759e-17 
8453.50 6.7671e-17 
8455.00 8.4583e-17 
8456.50 7.0757e-17 
8458.00 6.0241e-17 
8459.50 5.8122e-17 
8461.00 5.9361e-17 
8462.50 5.2099e-17 
8464.00 5.3349e-17 
8465.50 6.4758e-17 
8467.00 7.2422e-17 
8468.50 6.5645e-17 
8470.00 4.9851e-17 
8471.50 4.8989e-17 
8473.00 5.1600e-17 
8474.50 5.6654e-17 
8476.00 6.0353e-17 
8477.50 6.0095e-17 
8479.00 6.2359e-17 
8480.50 6.5045e-17 
8482.00 6.2080e-17 
8483.50 5.5799e-17 
8485.00 5.8481e-17 
8486.50 6.1911e-17 
8488.00 6.1193e-17 
8489.50 7.2613e-17 
8491.00 7.4515e-17 
8492.50 7.3212e-17 
8494.00 6.9091e-17 
8495.50 6.6913e-17 
8497.00 6.5141e-17 
8498.50 5.9268e-17 
8500.00 5.2487e-17 
8501.50 6.1412e-17 
8503.00 6.0018e-17 
8504.50 6.0100e-17 
8506.00 6.1540e-17 
8507.50 6.5947e-17 
8509.00 5.6020e-17 
8510.50 5.6222e-17 
8512.00 5.9783e-17 
8513.50 6.6325e-17 
8515.00 5.8231e-17 
8516.50 5.9366e-17 
8518.00 6.3385e-17 
8519.50 6.9134e-17 
8521.00 5.4394e-17 
8522.50 5.8974e-17 
8524.00 5.7311e-17 
8525.50 5.3334e-17 
8527.00 6.0645e-17 
8528.50 5.7566e-17 
8530.00 5.0789e-17 
8531.50 4.7890e-17 
8533.00 6.3633e-17 
8534.50 6.4142e-17 
8536.00 5.8356e-17 
8537.50 5.4990e-17 
8539.00 5.8898e-17 
8540.50 6.1882e-17 
8542.00 6.3083e-17 
8543.50 6.7539e-17 
8545.00 7.5897e-17 
8546.50 4.8531e-17 
8548.00 6.1198e-17 
8549.50 6.4480e-17 
8551.00 6.1085e-17 
8552.50 6.8878e-17 
8554.00 8.3854e-17 
8555.50 7.5713e-17 
8557.00 6.0101e-17 
8558.50 6.7323e-17 
8560.00 6.6172e-17 
8561.50 6.6983e-17 
8563.00 6.8186e-17 
8564.50 6.8714e-17 
8566.00 6.3758e-17 
8567.50 6.1445e-17 
8569.00 6.0101e-17 
8570.50 5.9837e-17 
8572.00 5.8455e-17 
8573.50 5.7969e-17 
8575.00 5.7534e-17 
8576.50 5.7059e-17 
8578.00 6.0942e-17 
8579.50 7.0142e-17 
8581.00 7.8019e-17 
8582.50 8.4239e-17 
8584.00 8.9945e-17 
8585.50 6.8079e-17 
8587.00 5.2401e-17 
8588.50 4.3396e-17 
8590.00 6.1602e-17 
8591.50 6.7801e-17 
8593.00 6.3937e-17 
8594.50 5.7270e-17 
8596.00 6.6249e-17 
8597.50 6.7882e-17 
8599.00 6.8911e-17 
8600.50 6.9540e-17 
8602.00 6.9311e-17 
8603.50 5.5140e-17 
8605.00 5.6445e-17 
8606.50 6.2509e-17 
8608.00 7.1395e-17 
8609.50 6.8373e-17 
8611.00 6.4663e-17 
8612.50 6.2834e-17 
8614.00 6.5796e-17 
8615.50 7.1334e-17 
8617.00 6.8112e-17 
8618.50 6.9031e-17 
8620.00 7.9620e-17 
8621.50 6.6043e-17 
8623.00 6.4404e-17 
8624.50 6.7399e-17 
8626.00 7.5916e-17 
8627.50 4.4479e-17 
8629.00 3.9372e-17 
8630.50 4.1054e-17 
8632.00 4.9551e-17 
8633.50 7.4046e-17 
8635.00 7.1730e-17 
8636.50 6.4002e-17 
8638.00 5.1655e-17 
8639.50 6.9573e-17 
8641.00 6.7265e-17 
8642.50 6.7697e-17 
8644.00 7.0294e-17 
8645.50 6.8494e-17 
8647.00 6.2728e-17 
8648.50 6.2442e-17 
8650.00 6.7118e-17 
8651.50 8.9485e-17 
8653.00 7.9544e-17 
8654.50 7.3188e-17 
8656.00 6.9978e-17 
8657.50 7.9816e-17 
8659.00 6.9999e-17 
8660.50 5.7987e-17 
8662.00 4.7398e-17 
8663.50 6.9026e-17 
8665.00 6.1474e-17 
8666.50 6.5094e-17 
8668.00 7.4861e-17 
8669.50 8.6743e-17 
8671.00 7.4077e-17 
8672.50 6.0250e-17 
8674.00 4.8552e-17 
8675.50 6.3219e-17 
8677.00 7.7905e-17 
8678.50 7.7203e-17 
8680.00 6.8898e-17 
8681.50 5.7374e-17 
8683.00 6.5650e-17 
8684.50 7.3997e-17 
8686.00 8.0120e-17 
8687.50 6.6044e-17 
8689.00 6.6858e-17 
8690.50 6.8802e-17 
8692.00 7.1570e-17 
8693.50 7.6532e-17 
8695.00 7.0382e-17 
8696.50 6.5942e-17 
8698.00 6.4336e-17 
8699.50 8.1948e-17 
8701.00 6.5770e-17 
8702.50 6.5447e-17 
8704.00 7.2068e-17 
8705.50 7.0617e-17 
8707.00 6.7756e-17 
8708.50 7.0177e-17 
8710.00 7.4930e-17 
8711.50 7.3753e-17 
8713.00 7.0189e-17 
8714.50 7.2417e-17 
8716.00 7.7625e-17 
8717.50 7.6764e-17 
8719.00 7.1914e-17 
8720.50 6.9885e-17 
8722.00 6.9718e-17 
8723.50 7.2005e-17 
8725.00 6.6909e-17 
8726.50 6.4134e-17 
8728.00 6.3086e-17 
8729.50 6.6263e-17 
8731.00 6.5689e-17 
8732.50 6.4043e-17 
8734.00 6.1449e-17 
8735.50 6.3212e-17 
8737.00 6.3175e-17 
8738.50 6.7089e-17 
8740.00 7.5288e-17 
8741.50 7.1463e-17 
8743.00 6.6834e-17 
8744.50 6.5347e-17 
8746.00 6.7865e-17 
8747.50 6.9900e-17 
8749.00 6.8193e-17 
8750.50 6.8905e-17 
8752.00 7.3906e-17 
8753.50 5.5467e-17 
8755.00 5.4321e-17 
8756.50 5.9757e-17 
8758.00 7.6376e-17 
8759.50 5.5196e-17 
8761.00 4.8328e-17 
8762.50 5.4084e-17 
8764.00 9.0382e-17 
8765.50 9.0723e-17 
8767.00 7.3303e-17 
8768.50 5.4971e-17 
8770.00 4.6133e-17 
8771.50 6.2128e-17 
8773.00 6.2428e-17 
8774.50 6.0527e-17 
8776.00 7.1530e-17 
8777.50 9.4478e-17 
8779.00 9.9357e-17 
8780.50 9.3945e-17 
8782.00 5.7908e-17 
8783.50 4.7572e-17 
8785.00 5.1899e-17 
8786.50 6.4713e-17 
8788.00 7.0290e-17 
8789.50 8.2975e-17 
8791.00 8.8653e-17 
8792.50 8.8674e-17 
8794.00 5.9145e-17 
8795.50 5.2423e-17 
8797.00 5.4578e-17 
8798.50 6.8573e-17 
8800.00 5.6574e-17 
8801.50 6.6460e-17 
8803.00 7.3975e-17 
8804.50 7.4416e-17 
8806.00 4.8845e-17 
8807.50 5.4456e-17 
8809.00 6.4189e-17 
8810.50 7.3393e-17 
8812.00 6.5227e-17 
8813.50 6.1648e-17 
8815.00 6.0301e-17 
8816.50 6.5507e-17 
8818.00 6.5441e-17 
8819.50 6.0555e-17 
8821.00 5.4387e-17 
8822.50 6.3113e-17 
8824.00 6.0889e-17 
8825.50 6.3348e-17 
8827.00 6.9464e-17 
8828.50 9.2518e-17 
8830.00 8.6888e-17 
8831.50 6.8510e-17 
8833.00 3.1010e-17 
8834.50 7.1403e-17 
8836.00 5.8292e-17 
8837.50 4.8324e-17 
8839.00 5.4422e-17 
8840.50 6.6020e-17 
8842.00 5.8741e-17 
8843.50 5.0759e-17 
8845.00 5.5724e-17 
8846.50 5.9965e-17 
8848.00 5.5057e-17 
8849.50 4.8356e-17 
8851.00 6.2687e-17 
8852.50 6.4841e-17 
8854.00 5.8410e-17 
8855.50 4.5324e-17 
8857.00 5.8881e-17 
8858.50 5.8735e-17 
8860.00 5.5076e-17 
8861.50 4.5851e-17 
8863.00 5.6749e-17 
8864.50 5.8134e-17 
8866.00 5.8184e-17 
8867.50 5.7044e-17 
8869.00 9.5444e-17 
8870.50 8.9989e-17 
8872.00 7.3765e-17 
8873.50 5.9555e-17 
8875.00 5.3921e-17 
8876.50 5.1739e-17 
8878.00 5.1474e-17 
8879.50 6.0033e-17 
8881.00 6.2877e-17 
8882.50 5.8560e-17 
8884.00 4.4996e-17 
8885.50 6.3484e-17 
8887.00 7.6985e-17 
8888.50 8.2006e-17 
8890.00 6.5986e-17 
8891.50 4.4435e-17 
8893.00 5.4922e-17 
8894.50 6.8805e-17 
8896.00 5.2216e-17 
8897.50 6.0253e-17 
8899.00 6.5689e-17 
8900.50 7.0056e-17 
8902.00 6.7509e-17 
8903.50 7.1467e-17 
8905.00 7.6025e-17 
8906.50 8.2187e-17 
8908.00 5.2412e-17 
8909.50 5.4281e-17 
8911.00 5.7994e-17 
8912.50 5.7044e-17 
8914.00 5.8918e-17 
8915.50 6.4528e-17 
8917.00 7.0561e-17 
8918.50 6.4002e-17 
8920.00 8.9730e-17 
8921.50 8.2930e-17 
8923.00 4.7743e-17 
8924.50 3.0835e-17 
8926.00 4.8782e-17 
8927.50 6.4730e-17 
8929.00 7.6061e-17 
8930.50 5.7846e-17 
8932.00 5.7310e-17 
8933.50 5.7791e-17 
8935.00 3.9357e-17 
8936.50 3.0238e-17 
8938.00 2.7696e-17 
8939.50 2.8850e-17 
8941.00 3.7237e-17 
8942.50 4.6259e-17 
8944.00 5.1056e-17 
8945.50 4.9127e-17 
8947.00 6.3781e-17 
8948.50 5.4924e-17 
8950.00 4.3410e-17 
8951.50 3.8415e-17 
8953.00 5.9046e-17 
8954.50 6.0682e-17 
8956.00 5.2582e-17 
8957.50 6.8108e-17 
8959.00 9.4198e-17 
8960.50 9.5356e-17 
8962.00 5.4362e-17 
8963.50 7.7587e-18 
8965.00 1.7204e-17 
8966.50 3.5845e-17 
8968.00 5.7014e-17 
8969.50 4.7688e-17 
8971.00 4.7389e-17 
8972.50 5.2061e-17 
8974.00 6.4879e-17 
8975.50 6.1349e-17 
8977.00 5.7279e-17 
8978.50 5.1387e-17 
8980.00 7.1207e-17 
8981.50 7.3377e-17 
8983.00 7.0401e-17 
8984.50 5.3979e-17 
8986.00 5.5176e-17 
8987.50 5.4837e-17 
8989.00 5.3350e-17 
8990.50 4.0944e-17 
8992.00 4.4742e-17 
8993.50 4.3495e-17 
8995.00 2.7287e-17 
8996.50 4.8940e-17 
8998.00 5.5752e-17 
8999.50 5.8687e-17 
9001.00 6.0693e-17 
9002.50 7.5444e-17 
9004.00 8.1462e-17 
9005.50 7.9410e-17 
9007.00 5.9707e-17 
9008.50 5.8048e-17 
9010.00 5.6451e-17 
9011.50 4.6886e-17 
9013.00 4.2545e-17 
9014.50 4.4700e-17 
9016.00 5.0251e-17 
9017.50 4.5988e-17 
9019.00 5.6286e-17 
9020.50 6.6112e-17 
9022.00 7.7433e-17 
9023.50 6.2173e-17 
9025.00 5.0568e-17 
9026.50 4.0912e-17 
9028.00 4.9012e-17 
9029.50 6.0742e-17 
9031.00 6.7126e-17 
9032.50 6.9675e-17 
9034.00 4.7312e-17 
9035.50 4.9601e-17 
9037.00 5.5315e-17 
9038.50 6.6676e-17 
9040.00 6.1156e-17 
9041.50 6.1584e-17 
9043.00 6.5383e-17 
9044.50 6.1786e-17 
9046.00 5.0833e-17 
9047.50 4.4788e-17 
9049.00 5.0568e-17 
9050.50 6.9341e-17 
9052.00 7.0875e-17 
9053.50 6.5732e-17 
9055.00 2.6849e-17 
9056.50 4.9117e-17 
9058.00 5.9476e-17 
9059.50 5.3822e-17 
9061.00 4.6182e-17 
9062.50 4.7261e-17 
9064.00 4.9795e-17 
9065.50 4.9583e-17 
9067.00 4.3789e-17 
9068.50 4.3072e-17 
9070.00 4.7539e-17 
9071.50 4.2819e-17 
9073.00 4.8637e-17 
9074.50 5.5148e-17 
9076.00 5.8900e-17 
9077.50 4.6151e-17 
9079.00 4.1686e-17 
9080.50 4.2353e-17 
9082.00 5.4833e-17 
9083.50 5.5036e-17 
9085.00 5.4350e-17 
9086.50 5.3334e-17 
9088.00 5.8247e-17 
9089.50 5.9725e-17 
9091.00 5.9527e-17 
9092.50 4.9285e-17 
9094.00 7.1265e-17 
9095.50 7.9919e-17 
9097.00 4.0382e-17 
9098.50 5.9674e-17 
9100.00 6.8934e-17 
9101.50 7.4990e-17 
9103.00 2.4587e-17 
9104.50 5.0451e-17 
9106.00 6.9902e-17 
9107.50 7.2031e-17 
9109.00 5.3716e-17 
9110.50 4.8424e-17 
9112.00 4.7790e-17 
9113.50 5.5239e-17 
9115.00 5.4476e-17 
9116.50 5.4854e-17 
9118.00 5.8761e-17 
9119.50 5.3492e-17 
9121.00 4.8746e-17 
9122.50 4.3552e-17 
9124.00 5.4458e-17 
9125.50 5.9045e-17 
9127.00 5.9901e-17 
9128.50 5.0501e-17 
9130.00 4.5981e-17 
9131.50 4.7600e-17 
9133.00 5.2004e-17 
9134.50 5.3028e-17 
9136.00 5.2726e-17 
9137.50 5.1370e-17 
9139.00 4.6311e-17 
9140.50 4.3101e-17 
9142.00 4.8601e-17 
9143.50 5.9197e-17 
9145.00 6.4882e-17 
9146.50 6.3799e-17 
9148.00 6.0948e-17 
9149.50 5.1273e-17 
9151.00 5.8306e-17 
9152.50 6.7523e-17 
9154.00 8.0204e-17 
9155.50 5.8538e-17 
9157.00 5.7392e-17 
9158.50 5.4210e-17 
9160.00 3.4665e-17 
9161.50 3.9190e-17 
9163.00 4.5856e-17 
9164.50 5.6196e-17 
9166.00 5.4776e-17 
9167.50 5.8916e-17 
9169.00 6.2965e-17 
9170.50 6.2974e-17 
9172.00 6.0661e-17 
9173.50 5.3585e-17 
9175.00 3.8692e-17 
9176.50 3.1245e-17 
9178.00 3.7751e-17 
9179.50 4.6452e-17 
9181.00 5.1176e-17 
9182.50 5.8656e-17 
9184.00 5.8187e-17 
9185.50 4.4516e-17 
9187.00 4.2936e-17 
9188.50 4.7525e-17 
9190.00 5.4182e-17 
9191.50 5.4183e-17 
9193.00 5.4183e-17 
9194.50 5.4184e-17 
9196.00 5.4185e-17 
9197.50 5.4186e-17 
9199.00 5.4187e-17 
9200.50 5.4187e-17 
9202.00 5.4188e-17 
9203.50 5.4189e-17 
9205.00 5.4190e-17 
9206.50 5.4191e-17 
9208.00 5.4191e-17 
9209.50 5.4192e-17 
9211.00 5.4193e-17 
9212.50 5.4194e-17 
9214.00 5.4194e-17 
9215.50 5.4195e-17 
9217.00 5.4196e-17 
9218.50 5.4197e-17 
9220.00 5.4198e-17 
9221.50 5.4198e-17 
9223.00 0
9224.50 0
9226.00 0
9227.50 0
9229.00 0
9230.50 0
9232.00 0
9233.50 0
9235.00 0
9236.50 0
9238.00 0
9239.50 0
9241.00 0
9242.50 0
9244.00 0
9245.50 0
9247.00 0
9248.50 0
9250.00 0
9251.50 0
9253.00 0
9254.50 0
9256.00 0
9257.50 0
9259.00 0
9260.50 0
9262.00 0
9263.50 0
9265.00 0
9266.50 0
9268.00 0
9269.50 0
9271.00 0
9272.50 0
9274.00 0
9275.50 0
9277.00 0
9278.50 0
9280.00 0
9281.50 0
9283.00 0
9284.50 0
9286.00 0
9287.50 0
9289.00 0
9290.50 0
9292.00 0
9293.50 0
9295.00 0
9296.50 0
9298.00 0
9299.50 0
9301.00 0
9302.50 0
9304.00 0
9305.50 0
9307.00 0
9308.50 0
9310.00 0
9311.50 0
9313.00 0
9314.50 0
9316.00 0
9317.50 0
9319.00 0
9320.50 0
9322.00 0
9323.50 0
9325.00 0
9326.50 0
9328.00 0
9329.50 0
9331.00 0
9332.50 0
9334.00 0
9335.50 0
9337.00 0
9338.50 0
9340.00 0
9341.50 0
9343.00 0
9344.50 0
9346.00 0
9347.50 0
9349.00 0
9350.50 0
9352.00 0
9353.50 0
9355.00 0
9356.50 0
9358.00 0
9359.50 0
9361.00 0
9362.50 0
9364.00 0
9365.50 0
9367.00 0
9368.50 0
9370.00 0
9371.50 0
9373.00 0
9374.50 0
9376.00 0
9377.50 0
9379.00 0
9380.50 0
9382.00 0
9383.50 0
9385.00 0
9386.50 0
9388.00 0
9389.50 0
9391.00 0
9392.50 0
9394.00 0
9395.50 0
9397.00 0
9398.50 0
9400.00 0
9401.50 0
9403.00 0
9404.50 0
9406.00 0
9407.50 0
9409.00 0
9410.50 0
9412.00 0
9413.50 0
9415.00 0
9416.50 0
9418.00 0
9419.50 0
9421.00 0
9422.50 0
9424.00 0
9425.50 0
9427.00 0
9428.50 0
9430.00 0
9431.50 0
9433.00 0
9434.50 0
9436.00 0
9437.50 0
9439.00 0
9440.50 0
9442.00 0
9443.50 0
9445.00 0
9446.50 0
9448.00 0
9449.50 0
9451.00 0
9452.50 0
9454.00 0
9455.50 0
9457.00 0
9458.50 0
9460.00 0
9461.50 0
9463.00 0
9464.50 0
9466.00 0
9467.50 0
9469.00 0
9470.50 0
9472.00 0
9473.50 0
9475.00 0
9476.50 0
9478.00 0
9479.50 0
9481.00 0
9482.50 0
9484.00 0
9485.50 0
9487.00 0
9488.50 0
9490.00 0
9491.50 0
9493.00 0
9494.50 0
9496.00 0
9497.50 0
9499.00 0
