Wavelength (Angstroms) Flux (erg/s/cm2/A)
# start
3400.00 0
3401.50 0
3403.00 0
3404.50 0
3406.00 0
3407.50 0
3409.00 0
3410.50 0
3412.00 0
3413.50 0
3415.00 0
3416.50 0
3418.00 0
3419.50 0
3421.00 0
3422.50 0
3424.00 0
3425.50 0
3427.00 0
3428.50 0
3430.00 0
3431.50 0
3433.00 0
3434.50 0
3436.00 0
3437.50 0
3439.00 0
3440.50 0
3442.00 0
3443.50 0
3445.00 0
3446.50 0
3448.00 0
3449.50 0
3451.00 0
3452.50 0
3454.00 0
3455.50 0
3457.00 0
3458.50 0
3460.00 0
3461.50 0
3463.00 0
3464.50 0
3466.00 0
3467.50 0
3469.00 0
3470.50 0
3472.00 0
3473.50 0
3475.00 0
3476.50 0
3478.00 0
3479.50 0
3481.00 0
3482.50 0
3484.00 0
3485.50 0
3487.00 0
3488.50 0
3490.00 0
3491.50 0
3493.00 0
3494.50 0
3496.00 0
3497.50 0
3499.00 0
3500.50 0
3502.00 0
3503.50 0
3505.00 0
3506.50 0
3508.00 0
3509.50 0
3511.00 0
3512.50 0
3514.00 0
3515.50 0
3517.00 0
3518.50 0
3520.00 0
3521.50 0
3523.00 0
3524.50 0
3526.00 0
3527.50 0
3529.00 0
3530.50 0
3532.00 0
3533.50 0
3535.00 0
3536.50 0
3538.00 0
3539.50 0
3541.00 0
3542.50 0
3544.00 0
3545.50 0
3547.00 0
3548.50 0
3550.00 0
3551.50 0
3553.00 0
3554.50 0
3556.00 0
3557.50 0
3559.00 0
3560.50 0
3562.00 0
3563.50 0
3565.00 0
3566.50 0
3568.00 0
3569.50 0
3571.00 0
3572.50 0
3574.00 0
3575.50 0
3577.00 0
3578.50 0
3580.00 0
3581.50 0
3583.00 0
3584.50 0
3586.00 1.0219e-18 
3587.50 -2.3990e-17
3589.00 -4.4483e-17
3590.50 -1.0958e-17
3592.00 -1.5987e-17
3593.50 5.8354e-18 
3595.00 3.3367e-17 
3596.50 2.7718e-17 
3598.00 1.8299e-17 
3599.50 5.8961e-19 
3601.00 3.0209e-17 
3602.50 -2.5298e-17
3604.00 -5.7025e-17
3605.50 -1.8315e-17
3607.00 4.4723e-18 
3608.50 1.7324e-17 
3610.00 8.7734e-18 
3611.50 2.9699e-17 
3613.00 3.5778e-17 
3614.50 1.9707e-17 
3616.00 4.9783e-17 
3617.50 -2.0395e-17
3619.00 1.3119e-18 
3620.50 -4.5869e-17
3622.00 -3.5061e-17
3623.50 -4.6111e-17
3625.00 -7.8598e-19
3626.50 -2.4375e-17
3628.00 -1.1230e-17
3629.50 -9.8948e-18
3631.00 2.5142e-17 
3632.50 8.7779e-19 
3634.00 4.4331e-17 
3635.50 1.6085e-17 
3637.00 2.4466e-17 
3638.50 -1.3553e-18
3640.00 1.4377e-17 
3641.50 -7.1770e-18
3643.00 -5.1248e-18
3644.50 -1.1359e-18
3646.00 8.2030e-18 
3647.50 2.0652e-18 
3649.00 3.6384e-17 
3650.50 1.4866e-17 
3652.00 -2.3672e-17
3653.50 -2.6428e-18
3655.00 -2.3533e-17
3656.50 -1.2731e-17
3658.00 -3.7269e-18
3659.50 -1.8427e-19
3661.00 -3.0497e-17
3662.50 -1.8801e-17
3664.00 -2.7443e-17
3665.50 -2.3225e-17
3667.00 -2.0155e-17
3668.50 9.3612e-18 
3670.00 1.2563e-17 
3671.50 -2.9143e-18
3673.00 -5.6458e-18
3674.50 -1.8520e-17
3676.00 -1.2799e-17
3677.50 -2.1059e-17
3679.00 -5.4105e-18
3680.50 1.9602e-17 
3682.00 1.7052e-17 
3683.50 9.7580e-18 
3685.00 1.8789e-17 
3686.50 4.0746e-18 
3688.00 -4.5047e-18
3689.50 -8.7892e-18
3691.00 5.3363e-18 
3692.50 -2.7545e-18
3694.00 -7.1073e-18
3695.50 -8.6130e-18
3697.00 -2.8804e-17
3698.50 1.1010e-17 
3700.00 -3.8741e-18
3701.50 -1.9677e-17
3703.00 -1.3774e-17
3704.50 -1.9255e-17
3706.00 2.9727e-18 
3707.50 -1.0128e-17
3709.00 8.2032e-18 
3710.50 1.3921e-17 
3712.00 -6.3162e-18
3713.50 6.7943e-18 
3715.00 4.3769e-18 
3716.50 -1.8264e-17
3718.00 -3.1297e-18
3719.50 -1.3740e-17
3721.00 -2.4668e-19
3722.50 8.8451e-18 
3724.00 -1.3977e-18
3725.50 -2.5564e-18
3727.00 7.3452e-18 
3728.50 -4.4314e-19
3730.00 7.6719e-18 
3731.50 4.4529e-18 
3733.00 -2.4815e-18
3734.50 -1.1596e-17
3736.00 3.3762e-18 
3737.50 -1.2571e-17
3739.00 -2.6282e-18
3740.50 -9.2752e-18
3742.00 2.2372e-18 
3743.50 3.8215e-18 
3745.00 -7.9973e-18
3746.50 1.6851e-17 
3748.00 1.0055e-17 
3749.50 -2.3923e-18
3751.00 -3.3444e-18
3752.50 -3.6243e-18
3754.00 -2.0642e-18
3755.50 -6.8376e-18
3757.00 4.7482e-18 
3758.50 6.5207e-18 
3760.00 1.4146e-18 
3761.50 2.2269e-17 
3763.00 -1.1943e-17
3764.50 -2.0964e-18
3766.00 -6.1291e-18
3767.50 -5.1890e-18
3769.00 5.1207e-18 
3770.50 -7.5230e-18
3772.00 -1.5337e-17
3773.50 6.6350e-18 
3775.00 -2.0140e-18
3776.50 8.2423e-18 
3778.00 8.5831e-18 
3779.50 5.3281e-18 
3781.00 1.0473e-17 
3782.50 1.0859e-18 
3784.00 1.3865e-17 
3785.50 9.4412e-18 
3787.00 3.0658e-18 
3788.50 4.5076e-18 
3790.00 3.4342e-18 
3791.50 5.4272e-18 
3793.00 1.3001e-17 
3794.50 7.7204e-19 
3796.00 1.5380e-19 
3797.50 -7.4094e-18
3799.00 -1.0033e-18
3800.50 -9.9482e-18
3802.00 -5.1241e-18
3803.50 -3.7382e-18
3805.00 -1.5314e-17
3806.50 2.8483e-18 
3808.00 1.4863e-17 
3809.50 -8.1323e-18
3811.00 -4.0127e-18
3812.50 -4.8370e-18
3814.00 4.8051e-18 
3815.50 4.7698e-18 
3817.00 2.0446e-18 
3818.50 7.9748e-18 
3820.00 6.8936e-18 
3821.50 5.9645e-18 
3823.00 1.1361e-18 
3824.50 -2.4615e-18
3826.00 -1.6582e-18
3827.50 -8.9189e-19
3829.00 1.8571e-17 
3830.50 1.1884e-18 
3832.00 -5.7644e-18
3833.50 9.6734e-19 
3835.00 -1.0452e-17
3836.50 4.5220e-19 
3838.00 -7.2147e-18
3839.50 -5.0873e-18
3841.00 -6.0869e-18
3842.50 -3.2990e-19
3844.00 1.1716e-17 
3845.50 4.8644e-18 
3847.00 -4.1108e-18
3848.50 4.3696e-18 
3850.00 -2.1178e-19
3851.50 2.7885e-18 
3853.00 1.4320e-18 
3854.50 -5.2657e-18
3856.00 -8.9890e-18
3857.50 3.7509e-18 
3859.00 4.1536e-18 
3860.50 -3.0866e-18
3862.00 4.9353e-18 
3863.50 1.7459e-17 
3865.00 1.2855e-17 
3866.50 1.4660e-17 
3868.00 7.5769e-18 
3869.50 -2.0416e-18
3871.00 4.2443e-18 
3872.50 7.9643e-18 
3874.00 4.9384e-19 
3875.50 3.7635e-18 
3877.00 1.3040e-17 
3878.50 1.1666e-17 
3880.00 2.1173e-17 
3881.50 3.8075e-17 
3883.00 3.8334e-17 
3884.50 6.4946e-18 
3886.00 1.3901e-17 
3887.50 1.4586e-17 
3889.00 4.0469e-17 
3890.50 3.6027e-17 
3892.00 2.0495e-17 
3893.50 1.9476e-18 
3895.00 -6.2991e-18
3896.50 1.0969e-17 
3898.00 3.8234e-17 
3899.50 2.8426e-17 
3901.00 2.7166e-17 
3902.50 4.0102e-17 
3904.00 4.1761e-17 
3905.50 2.4531e-17 
3907.00 1.1123e-18 
3908.50 8.9695e-18 
3910.00 1.1196e-17 
3911.50 1.6140e-17 
3913.00 2.0611e-17 
3914.50 4.2879e-17 
3916.00 5.5747e-17 
3917.50 5.4421e-17 
3919.00 5.5758e-17 
3920.50 3.9882e-17 
3922.00 3.3711e-17 
3923.50 1.0978e-17 
3925.00 5.4400e-18 
3926.50 5.8044e-18 
3928.00 4.2063e-18 
3929.50 2.1286e-17 
3931.00 3.4688e-17 
3932.50 4.3544e-17 
3934.00 4.0239e-17 
3935.50 4.5250e-17 
3937.00 4.1047e-17 
3938.50 3.4808e-17 
3940.00 5.3726e-17 
3941.50 5.8368e-17 
3943.00 5.2420e-17 
3944.50 6.4577e-17 
3946.00 6.2861e-17 
3947.50 6.1090e-17 
3949.00 4.8601e-17 
3950.50 2.9101e-17 
3952.00 4.2255e-17 
3953.50 4.3080e-17 
3955.00 2.5762e-17 
3956.50 1.1920e-17 
3958.00 1.2816e-17 
3959.50 3.5883e-17 
3961.00 6.0791e-17 
3962.50 6.7292e-17 
3964.00 3.7327e-17 
3965.50 3.1781e-17 
3967.00 4.1011e-17 
3968.50 5.1568e-17 
3970.00 5.6842e-17 
3971.50 6.8144e-17 
3973.00 6.2052e-17 
3974.50 6.2684e-17 
3976.00 5.3592e-17 
3977.50 6.1384e-17 
3979.00 5.1979e-17 
3980.50 4.4170e-17 
3982.00 4.8121e-17 
3983.50 4.6811e-17 
3985.00 5.7313e-17 
3986.50 5.6228e-17 
3988.00 4.1121e-17 
3989.50 3.3642e-17 
3991.00 5.6353e-17 
3992.50 4.6586e-17 
3994.00 1.7164e-17 
3995.50 8.9738e-18 
3997.00 2.1808e-17 
3998.50 5.0389e-17 
4000.00 5.8721e-17 
4001.50 5.8663e-17 
4003.00 5.3594e-17 
4004.50 2.0323e-17 
4006.00 1.1579e-17 
4007.50 4.9752e-18 
4009.00 1.8397e-17 
4010.50 4.5260e-17 
4012.00 4.2793e-17 
4013.50 5.9216e-17 
4015.00 7.0401e-17 
4016.50 4.4878e-17 
4018.00 2.2545e-17 
4019.50 2.3449e-17 
4021.00 5.3285e-17 
4022.50 5.6272e-17 
4024.00 4.7613e-17 
4025.50 5.6738e-17 
4027.00 5.9983e-17 
4028.50 5.2360e-17 
4030.00 5.2475e-17 
4031.50 5.4997e-17 
4033.00 3.5148e-17 
4034.50 3.6792e-17 
4036.00 4.7880e-17 
4037.50 4.8895e-17 
4039.00 5.7777e-17 
4040.50 4.4859e-17 
4042.00 2.5236e-17 
4043.50 8.8466e-18 
4045.00 2.3471e-17 
4046.50 4.7830e-17 
4048.00 6.3295e-17 
4049.50 5.8970e-17 
4051.00 5.3035e-17 
4052.50 6.5405e-17 
4054.00 6.3578e-17 
4055.50 6.2893e-17 
4057.00 6.4017e-17 
4058.50 5.9096e-17 
4060.00 4.2491e-17 
4061.50 4.7244e-17 
4063.00 5.8667e-17 
4064.50 5.1870e-17 
4066.00 2.4935e-17 
4067.50 1.8780e-17 
4069.00 2.5067e-17 
4070.50 3.5528e-17 
4072.00 4.2515e-17 
4073.50 4.1239e-17 
4075.00 3.6589e-17 
4076.50 3.5185e-17 
4078.00 3.7218e-17 
4079.50 3.5379e-17 
4081.00 5.8509e-17 
4082.50 7.1632e-17 
4084.00 7.6501e-17 
4085.50 6.1710e-17 
4087.00 5.2284e-17 
4088.50 4.9211e-17 
4090.00 4.1229e-17 
4091.50 2.2236e-17 
4093.00 8.4240e-18 
4094.50 2.5203e-17 
4096.00 4.6717e-17 
4097.50 5.2914e-17 
4099.00 3.4655e-17 
4100.50 1.1486e-17 
4102.00 4.9957e-18 
4103.50 3.0980e-18 
4105.00 -1.0895e-18
4106.50 1.9439e-17 
4108.00 5.7654e-17 
4109.50 5.9615e-17 
4111.00 4.5483e-17 
4112.50 4.4729e-17 
4114.00 5.8588e-17 
4115.50 4.9312e-17 
4117.00 4.9058e-17 
4118.50 4.0110e-17 
4120.00 1.7241e-17 
4121.50 5.6366e-18 
4123.00 5.8277e-18 
4124.50 1.2039e-17 
4126.00 2.9588e-17 
4127.50 3.8955e-17 
4129.00 7.1230e-17 
4130.50 8.6057e-17 
4132.00 7.6874e-17 
4133.50 6.8453e-17 
4135.00 4.9855e-17 
4136.50 4.5683e-17 
4138.00 6.2920e-17 
4139.50 6.4265e-17 
4141.00 6.5060e-17 
4142.50 7.3649e-17 
4144.00 6.8874e-17 
4145.50 3.9653e-17 
4147.00 7.9142e-18 
4148.50 3.0234e-17 
4150.00 4.8802e-17 
4151.50 5.0430e-17 
4153.00 5.3628e-17 
4154.50 6.4287e-17 
4156.00 6.2248e-17 
4157.50 5.3220e-17 
4159.00 6.7226e-17 
4160.50 7.5924e-17 
4162.00 7.4281e-17 
4163.50 6.8376e-17 
4165.00 4.8151e-17 
4166.50 5.1421e-17 
4168.00 6.0485e-17 
4169.50 6.3493e-17 
4171.00 6.6332e-17 
4172.50 5.7862e-17 
4174.00 3.7337e-17 
4175.50 2.7871e-17 
4177.00 4.4794e-17 
4178.50 6.4746e-17 
4180.00 7.7882e-17 
4181.50 7.2271e-17 
4183.00 6.1660e-17 
4184.50 6.2569e-17 
4186.00 7.5316e-17 
4187.50 7.9679e-17 
4189.00 8.3826e-17 
4190.50 7.3911e-17 
4192.00 7.2306e-17 
4193.50 7.1531e-17 
4195.00 6.4114e-17 
4196.50 6.5159e-17 
4198.00 4.9799e-17 
4199.50 5.4946e-17 
4201.00 6.7000e-17 
4202.50 6.2544e-17 
4204.00 5.9275e-17 
4205.50 5.8996e-17 
4207.00 5.8393e-17 
4208.50 6.9408e-17 
4210.00 6.9103e-17 
4211.50 7.4180e-17 
4213.00 5.9235e-17 
4214.50 5.6347e-17 
4216.00 6.4866e-17 
4217.50 6.8848e-17 
4219.00 6.7173e-17 
4220.50 4.8345e-17 
4222.00 4.3678e-17 
4223.50 6.4791e-17 
4225.00 5.7853e-17 
4226.50 5.4016e-17 
4228.00 5.5184e-17 
4229.50 5.0406e-17 
4231.00 3.8691e-17 
4232.50 3.2453e-17 
4234.00 4.3188e-17 
4235.50 4.2575e-17 
4237.00 2.0760e-17 
4238.50 2.6749e-17 
4240.00 5.3526e-17 
4241.50 5.8521e-17 
4243.00 5.3882e-17 
4244.50 4.0113e-17 
4246.00 5.2733e-17 
4247.50 6.3865e-17 
4249.00 6.1259e-17 
4250.50 5.7549e-17 
4252.00 4.0041e-17 
4253.50 3.7257e-17 
4255.00 4.3782e-17 
4256.50 6.1390e-17 
4258.00 6.2130e-17 
4259.50 6.8250e-17 
4261.00 6.8294e-17 
4262.50 5.7901e-17 
4264.00 5.7930e-17 
4265.50 6.2755e-17 
4267.00 7.3135e-17 
4268.50 6.0494e-17 
4270.00 4.6346e-17 
4271.50 3.9950e-17 
4273.00 3.8298e-17 
4274.50 2.8091e-17 
4276.00 5.2333e-17 
4277.50 4.9629e-17 
4279.00 4.1253e-17 
4280.50 5.2203e-17 
4282.00 4.5684e-17 
4283.50 3.8929e-17 
4285.00 3.9158e-17 
4286.50 5.1589e-17 
4288.00 6.3221e-17 
4289.50 7.1445e-17 
4291.00 7.0846e-17 
4292.50 7.2943e-17 
4294.00 6.0291e-17 
4295.50 6.2260e-17 
4297.00 6.7110e-17 
4298.50 6.9767e-17 
4300.00 6.4589e-17 
4301.50 5.9724e-17 
4303.00 4.3969e-17 
4304.50 3.2494e-17 
4306.00 2.9244e-17 
4307.50 4.3404e-17 
4309.00 6.3929e-17 
4310.50 6.2682e-17 
4312.00 5.0509e-17 
4313.50 4.3654e-17 
4315.00 4.4716e-17 
4316.50 4.4913e-17 
4318.00 3.3800e-17 
4319.50 4.5636e-17 
4321.00 5.3569e-17 
4322.50 4.0668e-17 
4324.00 2.0276e-17 
4325.50 2.1619e-18 
4327.00 -5.3140e-19
4328.50 1.5652e-18 
4330.00 2.1389e-17 
4331.50 5.3620e-17 
4333.00 6.2908e-17 
4334.50 5.8910e-17 
4336.00 7.3181e-17 
4337.50 8.2757e-17 
4339.00 8.0844e-17 
4340.50 6.0101e-17 
4342.00 3.0167e-17 
4343.50 9.7818e-18 
4345.00 5.3066e-19 
4346.50 1.1350e-17 
4348.00 1.2209e-17 
4349.50 1.0849e-17 
4351.00 1.0115e-17 
4352.50 1.2487e-17 
4354.00 2.0244e-17 
4355.50 4.4025e-17 
4357.00 8.5828e-17 
4358.50 9.9248e-17 
4360.00 1.0163e-16 
4361.50 1.1053e-16 
4363.00 1.0396e-16 
4364.50 7.9326e-17 
4366.00 5.0641e-17 
4367.50 1.9769e-17 
4369.00 9.4831e-18 
4370.50 5.2907e-18 
4372.00 4.3978e-18 
4373.50 9.0721e-18 
4375.00 1.3036e-17 
4376.50 1.7639e-17 
4378.00 3.4578e-17 
4379.50 4.0016e-17 
4381.00 4.8303e-17 
4382.50 7.9383e-17 
4384.00 9.1650e-17 
4385.50 1.0944e-16 
4387.00 9.3907e-17 
4388.50 7.4070e-17 
4390.00 7.9510e-17 
4391.50 8.7573e-17 
4393.00 8.1559e-17 
4394.50 6.0218e-17 
4396.00 4.3179e-17 
4397.50 5.9289e-17 
4399.00 6.1435e-17 
4400.50 6.2435e-17 
4402.00 7.0116e-17 
4403.50 7.2251e-17 
4405.00 6.9097e-17 
4406.50 6.4045e-17 
4408.00 6.8343e-17 
4409.50 6.0865e-17 
4411.00 6.0186e-17 
4412.50 6.9373e-17 
4414.00 6.2668e-17 
4415.50 4.8922e-17 
4417.00 3.9668e-17 
4418.50 5.5218e-17 
4420.00 6.6051e-17 
4421.50 6.3999e-17 
4423.00 4.9645e-17 
4424.50 5.5056e-17 
4426.00 6.2617e-17 
4427.50 6.3941e-17 
4429.00 6.0623e-17 
4430.50 5.5137e-17 
4432.00 4.9900e-17 
4433.50 3.9653e-17 
4435.00 4.0016e-17 
4436.50 5.6789e-17 
4438.00 6.3096e-17 
4439.50 6.7875e-17 
4441.00 7.1411e-17 
4442.50 7.0360e-17 
4444.00 5.9107e-17 
4445.50 5.9903e-17 
4447.00 6.2712e-17 
4448.50 6.4066e-17 
4450.00 5.9400e-17 
4451.50 5.6746e-17 
4453.00 6.0895e-17 
4454.50 6.0422e-17 
4456.00 5.0249e-17 
4457.50 4.5921e-17 
4459.00 5.5437e-17 
4460.50 6.1001e-17 
4462.00 4.2972e-17 
4463.50 2.6390e-17 
4465.00 3.6662e-17 
4466.50 2.9796e-17 
4468.00 1.0818e-17 
4469.50 1.5293e-17 
4471.00 3.4736e-17 
4472.50 5.4733e-17 
4474.00 5.2677e-17 
4475.50 4.9403e-17 
4477.00 6.6870e-17 
4478.50 7.1570e-17 
4480.00 6.9521e-17 
4481.50 6.2135e-17 
4483.00 4.7194e-17 
4484.50 3.6023e-17 
4486.00 5.8590e-17 
4487.50 6.3419e-17 
4489.00 5.3397e-17 
4490.50 6.0617e-17 
4492.00 6.6956e-17 
4493.50 6.7934e-17 
4495.00 7.1172e-17 
4496.50 6.7117e-17 
4498.00 7.1261e-17 
4499.50 7.5365e-17 
4501.00 7.4358e-17 
4502.50 6.9351e-17 
4504.00 7.2534e-17 
4505.50 7.3789e-17 
4507.00 6.1726e-17 
4508.50 4.6281e-17 
4510.00 4.4677e-17 
4511.50 6.0697e-17 
4513.00 6.9371e-17 
4514.50 6.7005e-17 
4516.00 6.3364e-17 
4517.50 5.2047e-17 
4519.00 6.0660e-17 
4520.50 6.7335e-17 
4522.00 7.5055e-17 
4523.50 7.0278e-17 
4525.00 6.8074e-17 
4526.50 6.0738e-17 
4528.00 5.4057e-17 
4529.50 4.7913e-17 
4531.00 5.5920e-17 
4532.50 7.2001e-17 
4534.00 6.5885e-17 
4535.50 5.3373e-17 
4537.00 3.8263e-17 
4538.50 4.2994e-17 
4540.00 6.9857e-17 
4541.50 5.6885e-17 
4543.00 4.0622e-17 
4544.50 2.7818e-17 
4546.00 4.5323e-17 
4547.50 6.0654e-17 
4549.00 6.3601e-17 
4550.50 6.7492e-17 
4552.00 4.8885e-17 
4553.50 3.8842e-17 
4555.00 4.9073e-17 
4556.50 6.1079e-17 
4558.00 6.4942e-17 
4559.50 6.4714e-17 
4561.00 5.4155e-17 
4562.50 4.9308e-17 
4564.00 5.5716e-17 
4565.50 5.9561e-17 
4567.00 6.4358e-17 
4568.50 6.1566e-17 
4570.00 5.7017e-17 
4571.50 4.7165e-17 
4573.00 3.8066e-17 
4574.50 4.8508e-17 
4576.00 5.6760e-17 
4577.50 5.3348e-17 
4579.00 4.9718e-17 
4580.50 5.5741e-17 
4582.00 6.5910e-17 
4583.50 5.8220e-17 
4585.00 4.9759e-17 
4586.50 5.2317e-17 
4588.00 4.1573e-17 
4589.50 2.1026e-17 
4591.00 3.6627e-17 
4592.50 5.4661e-17 
4594.00 4.6911e-17 
4595.50 3.6810e-17 
4597.00 4.0785e-17 
4598.50 5.0519e-17 
4600.00 5.7556e-17 
4601.50 5.3939e-17 
4603.00 5.4463e-17 
4604.50 4.5066e-17 
4606.00 2.5830e-17 
4607.50 3.0188e-17 
4609.00 4.5632e-17 
4610.50 4.5181e-17 
4612.00 4.3031e-17 
4613.50 5.4375e-17 
4615.00 5.4317e-17 
4616.50 5.6427e-17 
4618.00 5.6173e-17 
4619.50 4.9714e-17 
4621.00 4.7188e-17 
4622.50 4.9212e-17 
4624.00 5.8110e-17 
4625.50 6.0885e-17 
4627.00 5.7109e-17 
4628.50 4.2035e-17 
4630.00 4.1560e-17 
4631.50 4.8334e-17 
4633.00 4.9853e-17 
4634.50 5.7340e-17 
4636.00 5.1220e-17 
4637.50 4.2175e-17 
4639.00 2.1149e-17 
4640.50 1.9266e-17 
4642.00 2.5874e-17 
4643.50 4.7050e-17 
4645.00 5.3272e-17 
4646.50 5.4361e-17 
4648.00 5.9687e-17 
4649.50 6.2567e-17 
4651.00 5.6317e-17 
4652.50 5.9627e-17 
4654.00 5.5054e-17 
4655.50 5.1971e-17 
4657.00 5.0093e-17 
4658.50 5.3599e-17 
4660.00 6.1649e-17 
4661.50 5.4577e-17 
4663.00 4.2280e-17 
4664.50 3.6890e-17 
4666.00 1.9487e-17 
4667.50 1.6634e-17 
4669.00 2.8065e-17 
4670.50 4.4744e-17 
4672.00 5.6993e-17 
4673.50 5.9621e-17 
4675.00 5.6582e-17 
4676.50 5.8397e-17 
4678.00 5.9978e-17 
4679.50 5.1260e-17 
4681.00 2.4803e-17 
4682.50 1.3665e-17 
4684.00 2.4358e-17 
4685.50 3.3391e-17 
4687.00 4.1290e-17 
4688.50 5.3058e-17 
4690.00 5.1307e-17 
4691.50 5.2030e-17 
4693.00 4.1193e-17 
4694.50 3.9781e-17 
4696.00 3.6656e-17 
4697.50 3.8515e-17 
4699.00 4.0351e-17 
4700.50 2.8577e-17 
4702.00 3.0679e-17 
4703.50 4.3688e-17 
4705.00 5.1204e-17 
4706.50 6.5735e-17 
4708.00 6.0022e-17 
4709.50 5.9047e-17 
4711.00 4.4200e-17 
4712.50 4.9208e-17 
4714.00 4.9266e-17 
4715.50 5.3702e-17 
4717.00 6.2180e-17 
4718.50 6.0993e-17 
4720.00 5.7128e-17 
4721.50 6.0757e-17 
4723.00 6.6213e-17 
4724.50 6.8852e-17 
4726.00 6.3301e-17 
4727.50 6.8120e-17 
4729.00 6.3390e-17 
4730.50 6.0816e-17 
4732.00 5.5043e-17 
4733.50 5.1802e-17 
4735.00 5.0797e-17 
4736.50 3.4541e-17 
4738.00 3.0374e-17 
4739.50 3.7708e-17 
4741.00 4.2487e-17 
4742.50 5.3144e-17 
4744.00 6.4345e-17 
4745.50 6.5982e-17 
4747.00 6.1038e-17 
4748.50 5.4333e-17 
4750.00 5.9823e-17 
4751.50 6.2498e-17 
4753.00 6.0552e-17 
4754.50 5.8309e-17 
4756.00 5.3091e-17 
4757.50 6.1608e-17 
4759.00 5.6247e-17 
4760.50 5.5509e-17 
4762.00 6.2794e-17 
4763.50 6.5044e-17 
4765.00 6.7037e-17 
4766.50 6.6514e-17 
4768.00 5.2417e-17 
4769.50 4.7237e-17 
4771.00 5.3852e-17 
4772.50 6.0697e-17 
4774.00 6.2383e-17 
4775.50 5.7445e-17 
4777.00 6.5968e-17 
4778.50 6.3369e-17 
4780.00 6.4789e-17 
4781.50 6.7245e-17 
4783.00 5.8944e-17 
4784.50 4.7261e-17 
4786.00 4.8549e-17 
4787.50 5.5545e-17 
4789.00 5.7407e-17 
4790.50 4.5137e-17 
4792.00 1.7558e-17 
4793.50 9.6046e-18 
4795.00 2.4921e-17 
4796.50 4.6081e-17 
4798.00 4.4211e-17 
4799.50 3.9029e-17 
4801.00 4.4172e-17 
4802.50 4.5203e-17 
4804.00 4.8920e-17 
4805.50 5.4634e-17 
4807.00 6.0868e-17 
4808.50 5.7596e-17 
4810.00 4.4915e-17 
4811.50 3.8087e-17 
4813.00 2.4939e-17 
4814.50 2.9098e-17 
4816.00 4.6674e-17 
4817.50 4.1688e-17 
4819.00 3.0160e-17 
4820.50 3.2031e-17 
4822.00 4.0461e-17 
4823.50 4.1378e-17 
4825.00 4.8452e-17 
4826.50 5.6649e-17 
4828.00 5.6099e-17 
4829.50 3.8579e-17 
4831.00 2.9710e-17 
4832.50 3.9927e-17 
4834.00 4.4840e-17 
4835.50 4.3061e-17 
4837.00 5.1027e-17 
4838.50 4.9178e-17 
4840.00 5.4521e-17 
4841.50 5.9827e-17 
4843.00 5.6615e-17 
4844.50 5.8387e-17 
4846.00 5.7109e-17 
4847.50 5.2676e-17 
4849.00 5.9021e-17 
4850.50 5.1465e-17 
4852.00 5.3005e-17 
4853.50 3.6003e-17 
4855.00 1.9587e-17 
4856.50 2.2481e-17 
4858.00 3.6937e-17 
4859.50 5.2005e-17 
4861.00 5.7201e-17 
4862.50 4.9551e-17 
4864.00 3.1386e-17 
4865.50 8.6551e-18 
4867.00 6.7350e-18 
4868.50 2.4454e-17 
4870.00 4.0901e-17 
4871.50 5.1742e-17 
4873.00 6.2338e-17 
4874.50 6.4615e-17 
4876.00 6.0986e-17 
4877.50 6.6705e-17 
4879.00 6.3498e-17 
4880.50 6.5092e-17 
4882.00 6.3361e-17 
4883.50 5.8766e-17 
4885.00 5.5605e-17 
4886.50 5.0438e-17 
4888.00 2.8064e-17 
4889.50 6.6110e-18 
4891.00 8.7253e-18 
4892.50 2.6188e-17 
4894.00 4.1056e-17 
4895.50 4.2313e-17 
4897.00 4.2849e-17 
4898.50 3.4005e-17 
4900.00 1.7062e-17 
4901.50 9.0066e-18 
4903.00 1.9617e-17 
4904.50 3.3857e-17 
4906.00 4.0014e-17 
4907.50 4.3218e-17 
4909.00 5.4497e-17 
4910.50 6.1916e-17 
4912.00 6.6159e-17 
4913.50 6.9308e-17 
4915.00 6.4945e-17 
4916.50 6.8383e-17 
4918.00 7.0229e-17 
4919.50 6.6723e-17 
4921.00 6.4867e-17 
4922.50 5.7394e-17 
4924.00 4.6770e-17 
4925.50 4.1835e-17 
4927.00 4.5697e-17 
4928.50 5.2452e-17 
4930.00 5.6911e-17 
4931.50 5.5861e-17 
4933.00 4.8891e-17 
4934.50 4.2246e-17 
4936.00 3.2256e-17 
4937.50 2.5235e-17 
4939.00 3.0334e-17 
4940.50 4.9788e-17 
4942.00 7.0280e-17 
4943.50 6.6800e-17 
4945.00 6.7475e-17 
4946.50 6.2714e-17 
4948.00 6.5077e-17 
4949.50 6.3351e-17 
4951.00 6.2422e-17 
4952.50 5.7349e-17 
4954.00 5.4354e-17 
4955.50 6.0884e-17 
4957.00 4.0074e-17 
4958.50 4.9182e-17 
4960.00 7.0517e-17 
4961.50 7.9080e-17 
4963.00 7.5037e-17 
4964.50 6.9591e-17 
4966.00 8.0529e-17 
4967.50 7.1303e-17 
4969.00 6.2315e-17 
4970.50 7.3353e-17 
4972.00 7.9008e-17 
4973.50 8.2315e-17 
4975.00 7.5011e-17 
4976.50 7.5038e-17 
4978.00 7.1577e-17 
4979.50 6.4518e-17 
4981.00 4.6370e-17 
4982.50 4.0605e-17 
4984.00 5.2554e-17 
4985.50 6.8049e-17 
4987.00 8.0217e-17 
4988.50 8.5917e-17 
4990.00 8.0002e-17 
4991.50 8.2127e-17 
4993.00 8.3719e-17 
4994.50 8.5372e-17 
4996.00 8.7100e-17 
4997.50 7.8593e-17 
4999.00 8.1540e-17 
5000.50 8.0069e-17 
5002.00 8.2153e-17 
5003.50 7.5746e-17 
5005.00 7.8423e-17 
5006.50 7.9061e-17 
5008.00 5.8563e-17 
5009.50 3.9474e-17 
5011.00 4.5743e-17 
5012.50 4.2851e-17 
5014.00 2.6607e-17 
5015.50 1.6158e-17 
5017.00 3.1730e-17 
5018.50 4.7335e-17 
5020.00 3.5601e-17 
5021.50 1.0438e-17 
5023.00 1.3304e-17 
5024.50 4.5229e-17 
5026.00 7.1642e-17 
5027.50 6.9035e-17 
5029.00 4.4474e-17 
5030.50 2.2280e-17 
5032.00 3.7330e-17 
5033.50 4.8996e-17 
5035.00 5.4209e-17 
5036.50 7.4113e-17 
5038.00 8.5987e-17 
5039.50 9.8455e-17 
5041.00 7.9105e-17 
5042.50 6.9317e-17 
5044.00 7.3920e-17 
5045.50 7.9186e-17 
5047.00 8.4651e-17 
5048.50 8.9749e-17 
5050.00 7.0575e-17 
5051.50 5.5006e-17 
5053.00 7.1880e-17 
5054.50 9.1142e-17 
5056.00 1.0800e-16 
5057.50 1.1573e-16 
5059.00 1.0551e-16 
5060.50 9.5117e-17 
5062.00 9.6171e-17 
5063.50 1.0246e-16 
5065.00 1.1031e-16 
5066.50 1.1634e-16 
5068.00 1.1406e-16 
5069.50 1.1568e-16 
5071.00 1.1861e-16 
5072.50 1.1104e-16 
5074.00 1.1229e-16 
5075.50 1.1346e-16 
5077.00 1.0273e-16 
5078.50 1.0604e-16 
5080.00 1.0412e-16 
5081.50 8.4350e-17 
5083.00 9.4247e-17 
5084.50 9.4354e-17 
5086.00 7.4255e-17 
5087.50 4.5648e-17 
5089.00 2.4704e-17 
5090.50 1.2687e-17 
5092.00 1.9387e-17 
5093.50 6.3170e-17 
5095.00 1.0405e-16 
5096.50 1.3454e-16 
5098.00 1.5745e-16 
5099.50 1.1025e-16 
5101.00 1.0539e-16 
5102.50 1.6229e-16 
5104.00 1.8360e-16 
5105.50 1.7743e-16 
5107.00 1.8373e-16 
5108.50 1.8145e-16 
5110.00 1.5143e-16 
5111.50 9.2256e-17 
5113.00 5.5857e-17 
5114.50 5.8489e-17 
5116.00 6.0515e-17 
5117.50 4.6469e-17 
5119.00 5.1287e-17 
5120.50 7.5218e-17 
5122.00 7.6591e-17 
5123.50 6.2634e-17 
5125.00 2.7971e-17 
5126.50 5.3823e-18 
5128.00 5.7519e-18 
5129.50 5.6612e-18 
5131.00 1.3363e-17 
5132.50 1.0575e-16 
5134.00 2.8387e-16 
5135.50 4.1565e-16 
5137.00 4.6269e-16 
5138.50 4.9061e-16 
5140.00 4.9508e-16 
5141.50 4.7175e-16 
5143.00 4.4161e-16 
5144.50 4.1781e-16 
5146.00 3.9029e-16 
5147.50 3.7398e-16 
5149.00 3.5120e-16 
5150.50 3.2715e-16 
5152.00 3.1784e-16 
5153.50 2.9042e-16 
5155.00 2.7076e-16 
5156.50 2.5612e-16 
5158.00 2.4680e-16 
5159.50 2.3887e-16 
5161.00 2.3183e-16 
5162.50 2.2151e-16 
5164.00 2.1375e-16 
5165.50 2.0239e-16 
5167.00 2.0657e-16 
5168.50 2.0085e-16 
5170.00 1.9253e-16 
5171.50 1.7955e-16 
5173.00 1.8391e-16 
5174.50 1.8428e-16 
5176.00 1.7486e-16 
5177.50 1.6405e-16 
5179.00 1.5060e-16 
5180.50 1.4751e-16 
5182.00 1.5410e-16 
5183.50 1.5395e-16 
5185.00 1.5244e-16 
5186.50 1.4828e-16 
5188.00 1.4113e-16 
5189.50 1.4502e-16 
5191.00 1.4022e-16 
5192.50 1.4635e-16 
5194.00 1.5010e-16 
5195.50 1.4720e-16 
5197.00 1.4073e-16 
5198.50 1.4666e-16 
5200.00 1.5185e-16 
5201.50 1.4320e-16 
5203.00 1.4123e-16 
5204.50 1.3891e-16 
5206.00 1.3842e-16 
5207.50 1.3062e-16 
5209.00 1.3043e-16 
5210.50 1.3380e-16 
5212.00 1.0870e-16 
5213.50 7.2048e-17 
5215.00 4.8303e-17 
5216.50 4.9089e-17 
5218.00 5.5615e-17 
5219.50 5.8838e-17 
5221.00 5.2531e-17 
5222.50 4.3764e-17 
5224.00 5.8536e-17 
5225.50 9.2633e-17 
5227.00 1.1457e-16 
5228.50 1.2463e-16 
5230.00 1.0087e-16 
5231.50 7.2563e-17 
5233.00 7.5026e-17 
5234.50 8.3061e-17 
5236.00 8.5849e-17 
5237.50 8.3345e-17 
5239.00 7.0891e-17 
5240.50 7.3518e-17 
5242.00 1.0824e-16 
5243.50 1.4305e-16 
5245.00 1.5889e-16 
5246.50 1.6320e-16 
5248.00 1.6638e-16 
5249.50 1.6551e-16 
5251.00 1.6796e-16 
5252.50 1.6555e-16 
5254.00 1.6211e-16 
5255.50 1.5532e-16 
5257.00 1.4124e-16 
5258.50 1.3815e-16 
5260.00 1.3391e-16 
5261.50 1.3257e-16 
5263.00 1.2618e-16 
5264.50 1.2130e-16 
5266.00 1.1851e-16 
5267.50 1.0954e-16 
5269.00 1.1271e-16 
5270.50 1.1475e-16 
5272.00 1.0787e-16 
5273.50 1.0738e-16 
5275.00 1.0347e-16 
5276.50 1.0337e-16 
5278.00 1.0450e-16 
5279.50 9.7862e-17 
5281.00 8.2357e-17 
5282.50 7.7200e-17 
5284.00 8.9400e-17 
5285.50 9.3187e-17 
5287.00 9.4016e-17 
5288.50 9.2009e-17 
5290.00 8.3133e-17 
5291.50 8.2523e-17 
5293.00 9.5234e-17 
5294.50 1.0063e-16 
5296.00 9.4893e-17 
5297.50 9.1437e-17 
5299.00 9.7427e-17 
5300.50 9.5962e-17 
5302.00 9.2370e-17 
5303.50 9.1832e-17 
5305.00 9.1109e-17 
5306.50 9.6499e-17 
5308.00 9.4221e-17 
5309.50 9.0876e-17 
5311.00 8.7984e-17 
5312.50 8.7261e-17 
5314.00 6.6046e-17 
5315.50 5.2386e-17 
5317.00 3.4769e-17 
5318.50 3.7361e-17 
5320.00 5.5551e-17 
5321.50 7.4062e-17 
5323.00 8.4863e-17 
5324.50 8.9260e-17 
5326.00 9.3945e-17 
5327.50 9.2215e-17 
5329.00 8.8504e-17 
5330.50 8.7182e-17 
5332.00 8.7504e-17 
5333.50 8.3685e-17 
5335.00 8.4712e-17 
5336.50 8.1645e-17 
5338.00 8.4953e-17 
5339.50 8.7557e-17 
5341.00 8.4665e-17 
5342.50 8.1888e-17 
5344.00 8.3243e-17 
5345.50 8.2617e-17 
5347.00 8.3278e-17 
5348.50 7.9456e-17 
5350.00 8.1786e-17 
5351.50 8.3293e-17 
5353.00 8.5878e-17 
5354.50 8.2384e-17 
5356.00 7.7832e-17 
5357.50 7.8303e-17 
5359.00 8.2875e-17 
5360.50 8.1884e-17 
5362.00 7.9096e-17 
5363.50 7.6327e-17 
5365.00 7.6177e-17 
5366.50 7.4960e-17 
5368.00 7.5925e-17 
5369.50 7.4510e-17 
5371.00 7.3337e-17 
5372.50 7.2565e-17 
5374.00 6.7371e-17 
5375.50 6.7502e-17 
5377.00 7.0416e-17 
5378.50 7.0040e-17 
5380.00 7.0354e-17 
5381.50 7.4476e-17 
5383.00 7.3908e-17 
5384.50 6.9350e-17 
5386.00 6.5637e-17 
5387.50 6.6752e-17 
5389.00 6.7965e-17 
5390.50 6.7972e-17 
5392.00 6.6861e-17 
5393.50 6.7097e-17 
5395.00 6.6684e-17 
5396.50 6.8156e-17 
5398.00 6.6832e-17 
5399.50 6.7782e-17 
5401.00 7.0357e-17 
5402.50 6.4866e-17 
5404.00 6.6626e-17 
5405.50 6.5167e-17 
5407.00 6.1166e-17 
5408.50 6.3230e-17 
5410.00 6.2700e-17 
5411.50 6.4440e-17 
5413.00 6.6200e-17 
5414.50 7.0210e-17 
5416.00 6.7703e-17 
5417.50 6.5190e-17 
5419.00 6.7111e-17 
5420.50 6.4147e-17 
5422.00 6.1607e-17 
5423.50 6.6591e-17 
5425.00 6.8494e-17 
5426.50 6.4272e-17 
5428.00 6.4184e-17 
5429.50 6.2388e-17 
5431.00 6.0464e-17 
5432.50 6.3398e-17 
5434.00 6.1205e-17 
5435.50 6.1034e-17 
5437.00 6.5835e-17 
5438.50 6.7686e-17 
5440.00 6.9602e-17 
5441.50 6.2921e-17 
5443.00 6.3219e-17 
5444.50 6.6675e-17 
5446.00 6.3098e-17 
5447.50 6.0521e-17 
5449.00 6.1064e-17 
5450.50 6.4530e-17 
5452.00 7.2342e-17 
5453.50 6.5114e-17 
5455.00 5.7380e-17 
5456.50 6.1849e-17 
5458.00 6.4357e-17 
5459.50 6.5694e-17 
5461.00 6.7117e-17 
5462.50 6.0842e-17 
5464.00 5.5782e-17 
5465.50 6.0578e-17 
5467.00 6.0890e-17 
5468.50 6.2601e-17 
5470.00 6.3419e-17 
5471.50 6.6391e-17 
5473.00 6.7299e-17 
5474.50 6.2000e-17 
5476.00 6.3924e-17 
5477.50 6.5723e-17 
5479.00 6.5759e-17 
5480.50 6.4049e-17 
5482.00 6.4246e-17 
5483.50 6.5437e-17 
5485.00 6.5062e-17 
5486.50 6.1831e-17 
5488.00 6.1842e-17 
5489.50 6.5065e-17 
5491.00 5.6336e-17 
5492.50 5.1731e-17 
5494.00 5.2998e-17 
5495.50 5.9608e-17 
5497.00 6.6716e-17 
5498.50 6.4755e-17 
5500.00 5.9437e-17 
5501.50 5.4952e-17 
5503.00 5.3033e-17 
5504.50 6.3230e-17 
5506.00 6.9882e-17 
5507.50 7.7045e-17 
5509.00 7.5100e-17 
5510.50 7.1952e-17 
5512.00 7.9891e-17 
5513.50 7.5853e-17 
5515.00 7.6629e-17 
5516.50 7.7330e-17 
5518.00 7.4923e-17 
5519.50 7.6952e-17 
5521.00 8.1664e-17 
5522.50 7.5884e-17 
5524.00 7.8270e-17 
5525.50 7.9121e-17 
5527.00 7.7799e-17 
5528.50 7.6235e-17 
5530.00 7.8225e-17 
5531.50 7.5049e-17 
5533.00 7.2329e-17 
5534.50 7.3789e-17 
5536.00 7.1767e-17 
5537.50 7.3298e-17 
5539.00 6.7308e-17 
5540.50 6.6825e-17 
5542.00 7.3754e-17 
5543.50 7.0761e-17 
5545.00 6.7640e-17 
5546.50 6.8034e-17 
5548.00 6.8778e-17 
5549.50 6.9764e-17 
5551.00 6.7057e-17 
5552.50 6.6145e-17 
5554.00 6.3005e-17 
5555.50 6.3894e-17 
5557.00 6.4098e-17 
5558.50 6.6565e-17 
5560.00 6.9200e-17 
5561.50 6.2677e-17 
5563.00 6.2343e-17 
5564.50 6.3653e-17 
5566.00 6.0085e-17 
5567.50 5.9969e-17 
5569.00 5.7281e-17 
5570.50 6.2527e-17 
5572.00 6.7481e-17 
5573.50 6.5200e-17 
5575.00 7.5887e-17 
5576.50 7.9235e-17 
5578.00 7.1331e-17 
5579.50 5.5617e-17 
5581.00 4.4682e-17 
5582.50 6.3075e-17 
5584.00 6.4750e-17 
5585.50 6.0397e-17 
5587.00 6.0269e-17 
5588.50 6.1396e-17 
5590.00 6.0033e-17 
5591.50 6.1006e-17 
5593.00 5.7697e-17 
5594.50 5.9218e-17 
5596.00 6.0215e-17 
5597.50 5.7781e-17 
5599.00 6.0584e-17 
5600.50 5.8544e-17 
5602.00 6.0712e-17 
5603.50 5.9017e-17 
5605.00 5.6277e-17 
5606.50 5.7936e-17 
5608.00 5.4760e-17 
5609.50 5.6404e-17 
5611.00 5.6648e-17 
5612.50 5.5161e-17 
5614.00 5.9500e-17 
5615.50 5.9329e-17 
5617.00 5.5840e-17 
5618.50 5.5309e-17 
5620.00 5.6419e-17 
5621.50 6.1378e-17 
5623.00 6.3446e-17 
5624.50 6.0182e-17 
5626.00 5.4461e-17 
5627.50 4.1637e-17 
5629.00 3.1285e-17 
5630.50 2.4925e-17 
5632.00 3.2599e-17 
5633.50 4.6563e-17 
5635.00 5.0807e-17 
5636.50 5.9141e-17 
5638.00 6.2872e-17 
5639.50 6.7234e-17 
5641.00 6.3792e-17 
5642.50 6.1701e-17 
5644.00 6.4137e-17 
5645.50 6.4002e-17 
5647.00 6.4836e-17 
5648.50 6.6880e-17 
5650.00 6.4777e-17 
5651.50 6.4069e-17 
5653.00 6.3770e-17 
5654.50 6.3152e-17 
5656.00 6.0526e-17 
5657.50 6.0679e-17 
5659.00 6.4110e-17 
5660.50 5.9813e-17 
5662.00 5.5237e-17 
5663.50 5.6768e-17 
5665.00 6.1969e-17 
5666.50 6.3053e-17 
5668.00 5.9558e-17 
5669.50 6.1102e-17 
5671.00 5.9766e-17 
5672.50 5.7430e-17 
5674.00 6.0194e-17 
5675.50 5.9173e-17 
5677.00 5.7389e-17 
5678.50 6.0195e-17 
5680.00 6.2625e-17 
5681.50 6.0226e-17 
5683.00 6.2360e-17 
5684.50 5.8152e-17 
5686.00 6.1239e-17 
5687.50 5.9152e-17 
5689.00 5.2112e-17 
5690.50 4.9061e-17 
5692.00 5.1628e-17 
5693.50 6.2763e-17 
5695.00 6.3767e-17 
5696.50 5.3445e-17 
5698.00 5.3475e-17 
5699.50 5.1027e-17 
5701.00 5.4666e-17 
5702.50 6.0613e-17 
5704.00 5.3763e-17 
5705.50 5.9704e-17 
5707.00 6.2608e-17 
5708.50 5.4868e-17 
5710.00 5.8499e-17 
5711.50 5.8661e-17 
5713.00 5.8917e-17 
5714.50 5.6970e-17 
5716.00 5.6349e-17 
5717.50 6.3592e-17 
5719.00 6.2996e-17 
5720.50 5.8411e-17 
5722.00 5.8311e-17 
5723.50 5.5732e-17 
5725.00 5.6155e-17 
5726.50 5.9977e-17 
5728.00 5.9846e-17 
5729.50 6.0067e-17 
5731.00 6.0343e-17 
5732.50 6.1333e-17 
5734.00 6.1997e-17 
5735.50 6.0992e-17 
5737.00 5.9247e-17 
5738.50 6.3875e-17 
5740.00 6.5053e-17 
5741.50 5.9946e-17 
5743.00 5.7568e-17 
5744.50 5.9671e-17 
5746.00 5.8205e-17 
5747.50 5.6373e-17 
5749.00 5.6732e-17 
5750.50 6.1555e-17 
5752.00 6.4164e-17 
5753.50 6.2348e-17 
5755.00 6.1711e-17 
5756.50 5.7736e-17 
5758.00 5.7823e-17 
5759.50 5.7072e-17 
5761.00 5.7280e-17 
5762.50 5.9899e-17 
5764.00 5.8637e-17 
5765.50 5.9595e-17 
5767.00 6.2930e-17 
5768.50 6.1822e-17 
5770.00 5.6055e-17 
5771.50 6.3499e-17 
5773.00 6.5375e-17 
5774.50 6.0381e-17 
5776.00 5.9567e-17 
5777.50 5.9675e-17 
5779.00 6.2081e-17 
5780.50 6.4059e-17 
5782.00 6.1830e-17 
5783.50 5.9502e-17 
5785.00 6.0821e-17 
5786.50 6.4253e-17 
5788.00 6.3222e-17 
5789.50 6.3843e-17 
5791.00 6.0526e-17 
5792.50 6.1587e-17 
5794.00 6.1471e-17 
5795.50 6.0262e-17 
5797.00 5.9578e-17 
5798.50 5.9306e-17 
5800.00 5.7663e-17 
5801.50 5.9452e-17 
5803.00 6.1450e-17 
5804.50 5.6748e-17 
5806.00 5.8011e-17 
5807.50 6.0332e-17 
5809.00 5.7263e-17 
5810.50 6.0077e-17 
5812.00 5.9078e-17 
5813.50 5.8218e-17 
5815.00 6.1046e-17 
5816.50 6.1564e-17 
5818.00 5.7801e-17 
5819.50 5.6483e-17 
5821.00 5.6386e-17 
5822.50 5.7449e-17 
5824.00 5.8415e-17 
5825.50 6.0773e-17 
5827.00 6.5628e-17 
5828.50 6.3512e-17 
5830.00 6.2257e-17 
5831.50 6.3949e-17 
5833.00 6.0218e-17 
5834.50 6.7804e-17 
5836.00 6.2589e-17 
5837.50 6.2877e-17 
5839.00 6.5309e-17 
5840.50 6.7091e-17 
5842.00 6.6469e-17 
5843.50 6.3383e-17 
5845.00 6.6271e-17 
5846.50 6.4754e-17 
5848.00 5.8610e-17 
5849.50 6.2888e-17 
5851.00 5.7395e-17 
5852.50 5.8546e-17 
5854.00 6.2182e-17 
5855.50 6.4664e-17 
5857.00 6.8692e-17 
5858.50 6.3759e-17 
5860.00 6.8246e-17 
5861.50 6.8546e-17 
5863.00 6.6153e-17 
5864.50 6.6592e-17 
5866.00 6.3903e-17 
5867.50 6.3294e-17 
5869.00 6.7999e-17 
5870.50 6.9768e-17 
5872.00 6.9745e-17 
5873.50 7.3586e-17 
5875.00 6.7183e-17 
5876.50 5.1755e-17 
5878.00 3.6472e-17 
5879.50 3.0742e-17 
5881.00 3.3919e-17 
5882.50 3.9158e-17 
5884.00 4.8246e-17 
5885.50 6.5289e-17 
5887.00 7.9263e-17 
5888.50 7.5230e-17 
5890.00 6.3331e-17 
5891.50 6.6156e-17 
5893.00 7.6845e-17 
5894.50 7.5479e-17 
5896.00 6.1396e-17 
5897.50 6.2636e-17 
5899.00 8.2066e-17 
5900.50 7.4373e-17 
5902.00 7.1287e-17 
5903.50 7.2751e-17 
5905.00 6.6711e-17 
5906.50 6.9853e-17 
5908.00 7.1984e-17 
5909.50 7.4464e-17 
5911.00 7.4957e-17 
5912.50 7.0783e-17 
5914.00 7.0493e-17 
5915.50 6.2595e-17 
5917.00 3.9685e-17 
5918.50 3.9452e-17 
5920.00 4.6187e-17 
5921.50 5.5188e-17 
5923.00 7.1691e-17 
5924.50 7.6965e-17 
5926.00 8.0241e-17 
5927.50 8.6737e-17 
5929.00 8.6004e-17 
5930.50 8.2551e-17 
5932.00 8.4123e-17 
5933.50 8.3962e-17 
5935.00 7.9043e-17 
5936.50 7.4757e-17 
5938.00 7.4300e-17 
5939.50 7.3502e-17 
5941.00 7.5042e-17 
5942.50 7.3009e-17 
5944.00 6.6869e-17 
5945.50 6.7267e-17 
5947.00 6.4041e-17 
5948.50 6.9916e-17 
5950.00 6.6655e-17 
5951.50 6.8238e-17 
5953.00 6.2176e-17 
5954.50 6.2125e-17 
5956.00 6.8187e-17 
5957.50 6.3315e-17 
5959.00 6.3707e-17 
5960.50 6.5838e-17 
5962.00 6.2758e-17 
5963.50 6.8980e-17 
5965.00 6.2915e-17 
5966.50 6.4274e-17 
5968.00 6.4833e-17 
5969.50 6.2344e-17 
5971.00 6.2245e-17 
5972.50 6.2838e-17 
5974.00 5.7456e-17 
5975.50 6.0881e-17 
5977.00 6.7318e-17 
5978.50 5.8499e-17 
5980.00 5.4167e-17 
5981.50 5.8944e-17 
5983.00 5.7109e-17 
5984.50 5.5828e-17 
5986.00 5.8766e-17 
5987.50 5.7383e-17 
5989.00 5.7690e-17 
5990.50 6.1222e-17 
5992.00 5.6492e-17 
5993.50 5.0613e-17 
5995.00 5.2933e-17 
5996.50 6.0223e-17 
5998.00 5.6921e-17 
5999.50 5.2711e-17 
6001.00 5.5835e-17 
6002.50 5.9014e-17 
6004.00 5.7025e-17 
6005.50 5.4739e-17 
6007.00 5.6709e-17 
6008.50 5.9641e-17 
6010.00 5.7892e-17 
6011.50 5.5393e-17 
6013.00 6.2786e-17 
6014.50 5.9212e-17 
6016.00 5.7112e-17 
6017.50 5.8747e-17 
6019.00 6.1377e-17 
6020.50 6.0771e-17 
6022.00 5.8027e-17 
6023.50 5.7575e-17 
6025.00 5.7584e-17 
6026.50 5.9835e-17 
6028.00 6.1762e-17 
6029.50 5.9502e-17 
6031.00 5.9100e-17 
6032.50 6.2495e-17 
6034.00 5.7871e-17 
6035.50 5.2743e-17 
6037.00 5.5300e-17 
6038.50 5.6378e-17 
6040.00 5.3024e-17 
6041.50 5.5700e-17 
6043.00 5.7120e-17 
6044.50 5.8663e-17 
6046.00 5.5520e-17 
6047.50 5.5212e-17 
6049.00 5.3591e-17 
6050.50 5.6153e-17 
6052.00 5.4605e-17 
6053.50 4.8322e-17 
6055.00 5.5718e-17 
6056.50 5.1176e-17 
6058.00 5.2934e-17 
6059.50 5.6379e-17 
6061.00 5.4371e-17 
6062.50 5.6753e-17 
6064.00 6.1368e-17 
6065.50 5.9893e-17 
6067.00 5.8198e-17 
6068.50 5.5388e-17 
6070.00 5.1596e-17 
6071.50 5.5524e-17 
6073.00 5.2930e-17 
6074.50 5.8775e-17 
6076.00 5.8760e-17 
6077.50 5.6828e-17 
6079.00 5.6696e-17 
6080.50 5.5691e-17 
6082.00 5.5852e-17 
6083.50 5.5266e-17 
6085.00 5.6511e-17 
6086.50 6.0265e-17 
6088.00 6.0403e-17 
6089.50 5.1895e-17 
6091.00 5.7372e-17 
6092.50 5.6951e-17 
6094.00 5.5481e-17 
6095.50 6.0286e-17 
6097.00 5.1217e-17 
6098.50 5.3123e-17 
6100.00 5.3125e-17 
6101.50 5.2690e-17 
6103.00 5.0353e-17 
6104.50 5.1328e-17 
6106.00 5.3620e-17 
6107.50 5.2881e-17 
6109.00 5.4900e-17 
6110.50 5.3691e-17 
6112.00 4.6867e-17 
6113.50 5.2856e-17 
6115.00 5.6220e-17 
6116.50 5.9289e-17 
6118.00 5.7333e-17 
6119.50 5.4385e-17 
6121.00 5.4810e-17 
6122.50 5.5607e-17 
6124.00 5.4052e-17 
6125.50 5.2527e-17 
6127.00 5.4806e-17 
6128.50 5.6491e-17 
6130.00 5.6654e-17 
6131.50 5.4905e-17 
6133.00 5.1481e-17 
6134.50 5.2364e-17 
6136.00 5.6799e-17 
6137.50 5.8627e-17 
6139.00 5.7314e-17 
6140.50 5.4621e-17 
6142.00 6.2666e-17 
6143.50 6.0670e-17 
6145.00 5.5927e-17 
6146.50 5.4497e-17 
6148.00 5.4150e-17 
6149.50 5.7799e-17 
6151.00 5.5231e-17 
6152.50 5.4713e-17 
6154.00 5.4680e-17 
6155.50 5.4672e-17 
6157.00 5.6690e-17 
6158.50 5.5899e-17 
6160.00 5.3471e-17 
6161.50 5.5810e-17 
6163.00 5.8562e-17 
6164.50 4.9525e-17 
6166.00 5.3163e-17 
6167.50 5.2591e-17 
6169.00 5.5334e-17 
6170.50 5.8990e-17 
6172.00 5.9454e-17 
6173.50 5.9636e-17 
6175.00 5.7895e-17 
6176.50 5.5362e-17 
6178.00 5.3649e-17 
6179.50 4.8618e-17 
6181.00 5.2610e-17 
6182.50 5.5946e-17 
6184.00 5.4599e-17 
6185.50 5.5248e-17 
6187.00 5.5932e-17 
6188.50 5.6418e-17 
6190.00 5.7635e-17 
6191.50 5.4286e-17 
6193.00 5.7728e-17 
6194.50 6.1968e-17 
6196.00 5.7819e-17 
6197.50 5.2879e-17 
6199.00 5.4935e-17 
6200.50 5.0737e-17 
6202.00 5.4967e-17 
6203.50 5.6872e-17 
6205.00 5.5841e-17 
6206.50 5.7298e-17 
6208.00 5.4933e-17 
6209.50 5.4652e-17 
6211.00 5.8938e-17 
6212.50 5.6652e-17 
6214.00 5.5958e-17 
6215.50 6.5075e-17 
6217.00 6.2063e-17 
6218.50 5.6084e-17 
6220.00 6.0171e-17 
6221.50 6.2067e-17 
6223.00 5.3467e-17 
6224.50 5.3021e-17 
6226.00 4.9322e-17 
6227.50 4.7569e-17 
6229.00 4.9089e-17 
6230.50 5.4260e-17 
6232.00 5.8486e-17 
6233.50 5.6950e-17 
6235.00 5.5539e-17 
6236.50 5.5198e-17 
6238.00 5.2371e-17 
6239.50 5.1710e-17 
6241.00 5.1899e-17 
6242.50 5.6280e-17 
6244.00 6.0458e-17 
6245.50 6.1725e-17 
6247.00 5.9473e-17 
6248.50 5.2993e-17 
6250.00 5.9588e-17 
6251.50 5.8444e-17 
6253.00 5.1174e-17 
6254.50 5.4592e-17 
6256.00 5.8633e-17 
6257.50 5.2576e-17 
6259.00 5.7554e-17 
6260.50 6.2273e-17 
6262.00 5.9616e-17 
6263.50 5.4696e-17 
6265.00 5.6998e-17 
6266.50 6.0137e-17 
6268.00 5.6895e-17 
6269.50 5.8972e-17 
6271.00 5.5075e-17 
6272.50 5.4444e-17 
6274.00 5.5592e-17 
6275.50 5.7471e-17 
6277.00 5.7692e-17 
6278.50 5.7201e-17 
6280.00 5.8258e-17 
6281.50 5.7243e-17 
6283.00 5.6774e-17 
6284.50 5.8337e-17 
6286.00 5.7861e-17 
6287.50 6.2984e-17 
6289.00 6.5745e-17 
6290.50 6.0656e-17 
6292.00 5.7119e-17 
6293.50 6.0823e-17 
6295.00 5.7816e-17 
6296.50 5.8571e-17 
6298.00 6.1228e-17 
6299.50 5.9509e-17 
6301.00 6.6476e-17 
6302.50 8.4622e-17 
6304.00 5.9237e-17 
6305.50 6.3650e-17 
6307.00 6.6665e-17 
6308.50 5.9915e-17 
6310.00 5.8436e-17 
6311.50 5.8914e-17 
6313.00 5.6273e-17 
6314.50 5.8215e-17 
6316.00 5.7835e-17 
6317.50 5.5927e-17 
6319.00 5.4138e-17 
6320.50 5.7467e-17 
6322.00 6.2625e-17 
6323.50 6.1332e-17 
6325.00 5.8533e-17 
6326.50 5.7636e-17 
6328.00 5.5915e-17 
6329.50 6.0327e-17 
6331.00 6.3041e-17 
6332.50 6.2783e-17 
6334.00 6.0447e-17 
6335.50 5.5814e-17 
6337.00 5.9982e-17 
6338.50 5.7660e-17 
6340.00 5.6467e-17 
6341.50 6.1151e-17 
6343.00 6.3860e-17 
6344.50 5.8505e-17 
6346.00 5.4529e-17 
6347.50 5.9745e-17 
6349.00 5.7006e-17 
6350.50 5.6218e-17 
6352.00 5.6349e-17 
6353.50 5.4684e-17 
6355.00 5.9546e-17 
6356.50 6.3099e-17 
6358.00 5.9962e-17 
6359.50 6.1471e-17 
6361.00 6.3116e-17 
6362.50 5.8352e-17 
6364.00 5.5331e-17 
6365.50 5.8655e-17 
6367.00 6.0207e-17 
6368.50 5.8127e-17 
6370.00 5.5579e-17 
6371.50 5.6477e-17 
6373.00 5.8688e-17 
6374.50 5.8934e-17 
6376.00 6.0490e-17 
6377.50 6.1842e-17 
6379.00 6.0270e-17 
6380.50 6.3460e-17 
6382.00 6.3390e-17 
6383.50 6.0037e-17 
6385.00 6.1399e-17 
6386.50 6.1393e-17 
6388.00 5.7567e-17 
6389.50 5.7385e-17 
6391.00 6.0255e-17 
6392.50 5.9838e-17 
6394.00 5.9310e-17 
6395.50 5.9370e-17 
6397.00 5.8071e-17 
6398.50 6.2459e-17 
6400.00 6.1692e-17 
6401.50 6.0780e-17 
6403.00 5.9835e-17 
6404.50 5.8591e-17 
6406.00 5.8805e-17 
6407.50 5.7835e-17 
6409.00 6.4833e-17 
6410.50 6.0252e-17 
6412.00 5.9205e-17 
6413.50 6.2262e-17 
6415.00 5.8140e-17 
6416.50 5.9600e-17 
6418.00 5.8315e-17 
6419.50 5.8490e-17 
6421.00 6.4108e-17 
6422.50 6.6523e-17 
6424.00 6.1182e-17 
6425.50 6.0779e-17 
6427.00 6.2613e-17 
6428.50 6.3650e-17 
6430.00 6.3394e-17 
6431.50 6.4899e-17 
6433.00 6.4319e-17 
6434.50 5.7614e-17 
6436.00 6.5563e-17 
6437.50 5.8959e-17 
6439.00 5.1196e-17 
6440.50 4.6347e-17 
6442.00 4.7438e-17 
6443.50 6.0648e-17 
6445.00 6.1461e-17 
6446.50 6.4737e-17 
6448.00 6.9530e-17 
6449.50 6.6578e-17 
6451.00 6.4223e-17 
6452.50 7.1818e-17 
6454.00 6.8552e-17 
6455.50 6.7475e-17 
6457.00 6.7480e-17 
6458.50 6.9875e-17 
6460.00 7.4307e-17 
6461.50 7.6073e-17 
6463.00 7.6382e-17 
6464.50 7.6443e-17 
6466.00 7.6730e-17 
6467.50 7.4562e-17 
6469.00 7.3585e-17 
6470.50 7.2366e-17 
6472.00 6.8677e-17 
6473.50 7.5303e-17 
6475.00 7.9210e-17 
6476.50 7.6286e-17 
6478.00 7.3641e-17 
6479.50 7.7048e-17 
6481.00 8.1200e-17 
6482.50 7.8294e-17 
6484.00 7.3519e-17 
6485.50 7.2507e-17 
6487.00 7.5537e-17 
6488.50 7.9412e-17 
6490.00 8.3773e-17 
6491.50 8.5016e-17 
6493.00 8.0687e-17 
6494.50 8.2005e-17 
6496.00 8.6580e-17 
6497.50 8.5153e-17 
6499.00 8.5066e-17 
6500.50 8.8309e-17 
6502.00 8.7960e-17 
6503.50 8.4104e-17 
6505.00 8.3111e-17 
6506.50 8.6625e-17 
6508.00 8.6750e-17 
6509.50 8.5283e-17 
6511.00 8.8710e-17 
6512.50 8.7493e-17 
6514.00 7.9248e-17 
6515.50 6.6897e-17 
6517.00 5.2901e-17 
6518.50 4.8130e-17 
6520.00 5.4639e-17 
6521.50 6.2228e-17 
6523.00 6.2332e-17 
6524.50 5.6865e-17 
6526.00 4.6724e-17 
6527.50 3.3875e-17 
6529.00 2.5689e-17 
6530.50 2.3639e-17 
6532.00 2.7651e-17 
6533.50 3.0764e-17 
6535.00 3.7296e-17 
6536.50 5.0894e-17 
6538.00 5.4600e-17 
6539.50 5.3301e-17 
6541.00 5.2693e-17 
6542.50 5.5505e-17 
6544.00 6.5632e-17 
6545.50 7.9117e-17 
6547.00 9.9003e-17 
6548.50 1.1942e-16 
6550.00 1.3005e-16 
6551.50 1.3050e-16 
6553.00 1.2963e-16 
6554.50 1.3030e-16 
6556.00 1.2967e-16 
6557.50 1.2734e-16 
6559.00 1.2141e-16 
6560.50 1.1448e-16 
6562.00 1.1328e-16 
6563.50 1.1017e-16 
6565.00 1.0225e-16 
6566.50 9.3466e-17 
6568.00 8.9388e-17 
6569.50 8.9052e-17 
6571.00 8.5994e-17 
6572.50 8.3319e-17 
6574.00 8.6037e-17 
6575.50 8.5432e-17 
6577.00 7.8253e-17 
6578.50 7.6309e-17 
6580.00 7.7683e-17 
6581.50 7.9020e-17 
6583.00 7.9095e-17 
6584.50 7.5426e-17 
6586.00 7.0960e-17 
6587.50 7.2263e-17 
6589.00 7.1231e-17 
6590.50 7.2372e-17 
6592.00 7.0343e-17 
6593.50 6.8026e-17 
6595.00 7.0690e-17 
6596.50 7.1781e-17 
6598.00 7.0033e-17 
6599.50 6.7889e-17 
6601.00 6.4464e-17 
6602.50 6.3317e-17 
6604.00 6.6047e-17 
6605.50 6.4808e-17 
6607.00 6.8876e-17 
6608.50 6.7646e-17 
6610.00 6.7422e-17 
6611.50 6.8139e-17 
6613.00 6.3762e-17 
6614.50 6.2044e-17 
6616.00 6.6637e-17 
6617.50 6.7185e-17 
6619.00 6.3526e-17 
6620.50 6.1449e-17 
6622.00 6.4084e-17 
6623.50 6.5281e-17 
6625.00 5.8955e-17 
6626.50 6.4547e-17 
6628.00 6.6579e-17 
6629.50 6.1896e-17 
6631.00 6.4390e-17 
6632.50 6.4395e-17 
6634.00 6.3498e-17 
6635.50 6.4708e-17 
6637.00 6.5259e-17 
6638.50 6.2406e-17 
6640.00 5.9446e-17 
6641.50 6.3604e-17 
6643.00 6.4702e-17 
6644.50 6.0727e-17 
6646.00 5.9354e-17 
6647.50 6.0911e-17 
6649.00 5.9842e-17 
6650.50 5.9788e-17 
6652.00 6.1410e-17 
6653.50 6.2096e-17 
6655.00 6.3466e-17 
6656.50 6.3951e-17 
6658.00 6.0951e-17 
6659.50 6.1123e-17 
6661.00 6.0810e-17 
6662.50 5.5289e-17 
6664.00 5.9023e-17 
6665.50 5.9444e-17 
6667.00 5.6235e-17 
6668.50 5.8839e-17 
6670.00 6.2802e-17 
6671.50 5.9755e-17 
6673.00 5.4682e-17 
6674.50 5.5759e-17 
6676.00 5.6482e-17 
6677.50 5.1652e-17 
6679.00 5.5549e-17 
6680.50 5.4981e-17 
6682.00 5.6760e-17 
6683.50 6.1051e-17 
6685.00 6.2918e-17 
6686.50 6.0877e-17 
6688.00 6.1440e-17 
6689.50 5.5083e-17 
6691.00 5.2687e-17 
6692.50 5.5300e-17 
6694.00 5.8788e-17 
6695.50 6.0482e-17 
6697.00 6.1285e-17 
6698.50 5.9877e-17 
6700.00 5.7557e-17 
6701.50 5.4640e-17 
6703.00 5.3869e-17 
6704.50 5.6920e-17 
6706.00 5.6512e-17 
6707.50 5.7012e-17 
6709.00 5.8767e-17 
6710.50 5.7955e-17 
6712.00 5.6209e-17 
6713.50 5.6996e-17 
6715.00 5.7660e-17 
6716.50 5.7883e-17 
6718.00 5.8969e-17 
6719.50 5.7729e-17 
6721.00 5.6912e-17 
6722.50 5.7835e-17 
6724.00 5.8956e-17 
6725.50 5.8288e-17 
6727.00 5.5843e-17 
6728.50 5.8829e-17 
6730.00 5.9009e-17 
6731.50 5.7363e-17 
6733.00 6.0032e-17 
6734.50 5.6395e-17 
6736.00 5.8206e-17 
6737.50 5.8771e-17 
6739.00 5.6362e-17 
6740.50 5.6054e-17 
6742.00 6.0103e-17 
6743.50 6.0504e-17 
6745.00 5.9224e-17 
6746.50 5.9562e-17 
6748.00 5.6669e-17 
6749.50 5.4347e-17 
6751.00 6.0086e-17 
6752.50 6.1862e-17 
6754.00 6.0527e-17 
6755.50 5.9769e-17 
6757.00 5.8036e-17 
6758.50 5.6071e-17 
6760.00 5.7540e-17 
6761.50 6.0360e-17 
6763.00 5.9969e-17 
6764.50 5.9896e-17 
6766.00 6.2781e-17 
6767.50 6.2887e-17 
6769.00 6.0681e-17 
6770.50 6.0278e-17 
6772.00 5.8987e-17 
6773.50 5.7420e-17 
6775.00 5.5544e-17 
6776.50 5.6014e-17 
6778.00 5.7624e-17 
6779.50 5.6569e-17 
6781.00 5.6713e-17 
6782.50 5.8758e-17 
6784.00 5.5594e-17 
6785.50 5.4859e-17 
6787.00 5.7220e-17 
6788.50 5.6746e-17 
6790.00 5.9429e-17 
6791.50 5.7401e-17 
6793.00 5.8739e-17 
6794.50 6.3150e-17 
6796.00 6.3240e-17 
6797.50 6.0219e-17 
6799.00 5.8684e-17 
6800.50 5.6575e-17 
6802.00 5.4768e-17 
6803.50 5.8097e-17 
6805.00 5.9868e-17 
6806.50 5.8360e-17 
6808.00 5.8294e-17 
6809.50 5.8824e-17 
6811.00 5.6380e-17 
6812.50 5.7344e-17 
6814.00 5.8816e-17 
6815.50 5.9955e-17 
6817.00 6.1490e-17 
6818.50 5.5590e-17 
6820.00 6.0258e-17 
6821.50 5.9757e-17 
6823.00 5.6692e-17 
6824.50 5.7391e-17 
6826.00 5.9719e-17 
6827.50 5.9863e-17 
6829.00 6.1192e-17 
6830.50 6.3246e-17 
6832.00 6.2894e-17 
6833.50 6.0697e-17 
6835.00 5.9823e-17 
6836.50 6.1766e-17 
6838.00 6.2235e-17 
6839.50 5.8739e-17 
6841.00 6.0811e-17 
6842.50 5.8403e-17 
6844.00 5.2961e-17 
6845.50 5.7946e-17 
6847.00 6.0377e-17 
6848.50 6.1713e-17 
6850.00 5.9009e-17 
6851.50 5.8116e-17 
6853.00 5.9757e-17 
6854.50 5.8863e-17 
6856.00 5.6221e-17 
6857.50 5.5430e-17 
6859.00 5.7774e-17 
6860.50 6.0638e-17 
6862.00 6.0408e-17 
6863.50 5.7462e-17 
6865.00 5.8868e-17 
6866.50 6.5060e-17 
6868.00 6.4333e-17 
6869.50 5.6465e-17 
6871.00 5.4173e-17 
6872.50 5.7076e-17 
6874.00 5.5196e-17 
6875.50 5.8418e-17 
6877.00 5.9003e-17 
6878.50 5.6775e-17 
6880.00 5.8967e-17 
6881.50 6.1269e-17 
6883.00 5.7120e-17 
6884.50 5.9778e-17 
6886.00 6.1010e-17 
6887.50 5.9896e-17 
6889.00 5.8214e-17 
6890.50 5.6712e-17 
6892.00 5.6881e-17 
6893.50 5.9799e-17 
6895.00 6.1706e-17 
6896.50 5.8238e-17 
6898.00 5.4846e-17 
6899.50 5.6821e-17 
6901.00 5.8780e-17 
6902.50 5.4409e-17 
6904.00 6.1262e-17 
6905.50 6.0224e-17 
6907.00 5.8435e-17 
6908.50 5.6451e-17 
6910.00 5.6035e-17 
6911.50 5.8974e-17 
6913.00 5.7420e-17 
6914.50 6.1662e-17 
6916.00 6.5366e-17 
6917.50 6.2448e-17 
6919.00 5.8306e-17 
6920.50 5.8755e-17 
6922.00 6.2350e-17 
6923.50 6.3105e-17 
6925.00 6.0084e-17 
6926.50 5.9754e-17 
6928.00 5.6957e-17 
6929.50 5.4192e-17 
6931.00 6.1765e-17 
6932.50 6.0983e-17 
6934.00 6.3637e-17 
6935.50 6.2261e-17 
6937.00 5.9722e-17 
6938.50 5.8238e-17 
6940.00 5.6016e-17 
6941.50 5.6748e-17 
6943.00 5.6823e-17 
6944.50 5.6027e-17 
6946.00 5.8547e-17 
6947.50 5.9781e-17 
6949.00 5.7628e-17 
6950.50 5.7507e-17 
6952.00 6.2706e-17 
6953.50 6.1340e-17 
6955.00 5.6162e-17 
6956.50 5.5751e-17 
6958.00 5.8580e-17 
6959.50 5.8233e-17 
6961.00 5.5932e-17 
6962.50 5.4004e-17 
6964.00 5.3684e-17 
6965.50 5.3730e-17 
6967.00 5.3215e-17 
6968.50 5.3373e-17 
6970.00 5.4808e-17 
6971.50 5.5400e-17 
6973.00 5.4693e-17 
6974.50 5.6433e-17 
6976.00 5.6631e-17 
6977.50 5.3352e-17 
6979.00 5.3532e-17 
6980.50 5.9023e-17 
6982.00 6.1428e-17 
6983.50 5.9992e-17 
6985.00 5.7817e-17 
6986.50 5.6692e-17 
6988.00 5.5753e-17 
6989.50 5.4728e-17 
6991.00 5.4739e-17 
6992.50 5.5779e-17 
6994.00 5.5958e-17 
6995.50 5.4515e-17 
6997.00 5.2888e-17 
6998.50 5.3726e-17 
7000.00 5.7313e-17 
7001.50 5.6903e-17 
7003.00 5.5588e-17 
7004.50 5.4355e-17 
7006.00 5.5639e-17 
7007.50 6.0374e-17 
7009.00 6.0781e-17 
7010.50 6.0332e-17 
7012.00 5.9436e-17 
7013.50 5.5761e-17 
7015.00 5.4913e-17 
7016.50 5.7776e-17 
7018.00 5.8664e-17 
7019.50 6.0989e-17 
7021.00 5.8681e-17 
7022.50 5.9294e-17 
7024.00 5.8479e-17 
7025.50 5.5679e-17 
7027.00 5.5697e-17 
7028.50 5.5194e-17 
7030.00 5.7948e-17 
7031.50 6.0640e-17 
7033.00 5.8632e-17 
7034.50 5.4654e-17 
7036.00 5.4340e-17 
7037.50 5.7832e-17 
7039.00 5.6735e-17 
7040.50 5.7232e-17 
7042.00 5.5595e-17 
7043.50 5.5329e-17 
7045.00 5.2900e-17 
7046.50 4.1827e-17 
7048.00 3.4110e-17 
7049.50 3.6914e-17 
7051.00 4.5006e-17 
7052.50 5.2464e-17 
7054.00 5.7520e-17 
7055.50 5.8904e-17 
7057.00 5.6277e-17 
7058.50 5.4499e-17 
7060.00 5.4220e-17 
7061.50 5.5004e-17 
7063.00 5.5442e-17 
7064.50 5.4861e-17 
7066.00 5.3575e-17 
7067.50 5.2793e-17 
7069.00 5.4397e-17 
7070.50 5.5027e-17 
7072.00 5.4015e-17 
7073.50 5.4060e-17 
7075.00 5.5004e-17 
7076.50 5.4535e-17 
7078.00 5.5908e-17 
7079.50 5.7315e-17 
7081.00 5.2027e-17 
7082.50 5.2215e-17 
7084.00 5.6562e-17 
7085.50 5.3585e-17 
7087.00 5.2753e-17 
7088.50 5.2639e-17 
7090.00 5.2577e-17 
7091.50 5.3267e-17 
7093.00 5.3064e-17 
7094.50 5.0957e-17 
7096.00 4.9386e-17 
7097.50 5.2444e-17 
7099.00 5.2289e-17 
7100.50 5.0448e-17 
7102.00 4.8760e-17 
7103.50 4.8502e-17 
7105.00 4.9947e-17 
7106.50 4.9966e-17 
7108.00 5.1328e-17 
7109.50 5.3678e-17 
7111.00 5.3259e-17 
7112.50 5.1326e-17 
7114.00 5.0789e-17 
7115.50 5.1669e-17 
7117.00 5.1637e-17 
7118.50 5.0209e-17 
7120.00 5.0073e-17 
7121.50 5.0835e-17 
7123.00 5.0427e-17 
7124.50 4.8177e-17 
7126.00 4.7719e-17 
7127.50 4.8663e-17 
7129.00 4.8279e-17 
7130.50 4.9153e-17 
7132.00 5.0258e-17 
7133.50 4.9296e-17 
7135.00 4.7342e-17 
7136.50 4.7515e-17 
7138.00 5.1660e-17 
7139.50 5.2670e-17 
7141.00 5.0236e-17 
7142.50 4.8561e-17 
7144.00 5.0619e-17 
7145.50 5.3384e-17 
7147.00 5.1805e-17 
7148.50 4.8648e-17 
7150.00 4.7305e-17 
7151.50 4.8664e-17 
7153.00 5.0653e-17 
7154.50 5.1447e-17 
7156.00 5.1557e-17 
7157.50 5.0707e-17 
7159.00 4.8255e-17 
7160.50 4.6721e-17 
7162.00 4.8125e-17 
7163.50 4.9549e-17 
7165.00 4.6314e-17 
7166.50 4.4559e-17 
7168.00 5.1127e-17 
7169.50 4.8555e-17 
7171.00 4.6740e-17 
7172.50 4.9562e-17 
7174.00 4.9229e-17 
7175.50 5.1159e-17 
7177.00 5.1989e-17 
7178.50 4.9026e-17 
7180.00 4.8076e-17 
7181.50 4.8989e-17 
7183.00 4.8995e-17 
7184.50 4.8332e-17 
7186.00 4.4586e-17 
7187.50 5.1441e-17 
7189.00 5.1589e-17 
7190.50 4.9130e-17 
7192.00 4.9345e-17 
7193.50 4.8175e-17 
7195.00 4.5474e-17 
7196.50 4.8960e-17 
7198.00 4.9595e-17 
7199.50 4.9282e-17 
7201.00 5.0345e-17 
7202.50 5.1093e-17 
7204.00 5.0596e-17 
7205.50 5.1657e-17 
7207.00 5.0853e-17 
7208.50 4.9486e-17 
7210.00 4.9676e-17 
7211.50 5.0707e-17 
7213.00 5.1710e-17 
7214.50 5.2906e-17 
7216.00 4.6265e-17 
7217.50 4.9650e-17 
7219.00 5.1219e-17 
7220.50 4.8726e-17 
7222.00 4.6166e-17 
7223.50 4.7321e-17 
7225.00 5.0438e-17 
7226.50 5.1369e-17 
7228.00 4.9946e-17 
7229.50 4.9470e-17 
7231.00 5.0854e-17 
7232.50 5.1742e-17 
7234.00 5.1429e-17 
7235.50 5.3126e-17 
7237.00 5.4512e-17 
7238.50 5.3866e-17 
7240.00 5.4661e-17 
7241.50 5.9891e-17 
7243.00 6.3904e-17 
7244.50 5.5292e-17 
7246.00 5.3930e-17 
7247.50 5.4157e-17 
7249.00 5.7249e-17 
7250.50 5.6103e-17 
7252.00 5.1356e-17 
7253.50 5.1107e-17 
7255.00 5.2073e-17 
7256.50 4.9277e-17 
7258.00 5.1110e-17 
7259.50 5.2822e-17 
7261.00 5.0674e-17 
7262.50 4.9351e-17 
7264.00 5.2052e-17 
7265.50 5.1557e-17 
7267.00 4.9613e-17 
7268.50 4.8523e-17 
7270.00 4.9427e-17 
7271.50 5.1772e-17 
7273.00 5.2780e-17 
7274.50 4.8794e-17 
7276.00 4.8499e-17 
7277.50 5.3782e-17 
7279.00 5.3876e-17 
7280.50 5.2609e-17 
7282.00 5.2848e-17 
7283.50 5.1678e-17 
7285.00 4.9279e-17 
7286.50 5.1550e-17 
7288.00 5.3685e-17 
7289.50 5.4313e-17 
7291.00 5.1635e-17 
7292.50 4.9673e-17 
7294.00 5.2732e-17 
7295.50 5.2529e-17 
7297.00 5.0798e-17 
7298.50 5.0315e-17 
7300.00 4.9859e-17 
7301.50 4.9691e-17 
7303.00 5.1826e-17 
7304.50 5.4779e-17 
7306.00 5.2202e-17 
7307.50 5.3355e-17 
7309.00 5.3740e-17 
7310.50 5.1924e-17 
7312.00 4.9999e-17 
7313.50 5.0485e-17 
7315.00 5.2627e-17 
7316.50 5.0747e-17 
7318.00 5.1672e-17 
7319.50 5.7804e-17 
7321.00 5.6287e-17 
7322.50 4.8517e-17 
7324.00 4.8127e-17 
7325.50 5.1684e-17 
7327.00 4.9311e-17 
7328.50 4.6722e-17 
7330.00 5.0041e-17 
7331.50 5.4430e-17 
7333.00 5.3519e-17 
7334.50 5.2070e-17 
7336.00 5.0596e-17 
7337.50 5.1077e-17 
7339.00 5.0884e-17 
7340.50 4.8398e-17 
7342.00 4.9743e-17 
7343.50 5.7135e-17 
7345.00 5.3190e-17 
7346.50 5.2046e-17 
7348.00 5.1393e-17 
7349.50 5.0063e-17 
7351.00 4.9101e-17 
7352.50 4.9312e-17 
7354.00 4.9817e-17 
7355.50 4.8875e-17 
7357.00 5.1384e-17 
7358.50 4.9471e-17 
7360.00 5.2061e-17 
7361.50 5.4049e-17 
7363.00 5.2219e-17 
7364.50 5.0105e-17 
7366.00 4.9489e-17 
7367.50 4.9466e-17 
7369.00 5.4744e-17 
7370.50 5.1834e-17 
7372.00 5.2019e-17 
7373.50 5.9524e-17 
7375.00 5.8866e-17 
7376.50 5.4753e-17 
7378.00 5.2493e-17 
7379.50 5.3007e-17 
7381.00 5.3866e-17 
7382.50 5.3111e-17 
7384.00 5.0454e-17 
7385.50 4.9076e-17 
7387.00 5.2182e-17 
7388.50 5.4818e-17 
7390.00 5.5340e-17 
7391.50 5.4590e-17 
7393.00 5.4320e-17 
7394.50 5.5797e-17 
7396.00 5.7849e-17 
7397.50 5.3044e-17 
7399.00 5.1888e-17 
7400.50 5.2225e-17 
7402.00 5.1804e-17 
7403.50 5.1049e-17 
7405.00 5.2540e-17 
7406.50 5.7623e-17 
7408.00 5.4816e-17 
7409.50 5.3765e-17 
7411.00 5.0374e-17 
7412.50 4.9676e-17 
7414.00 5.2749e-17 
7415.50 5.3904e-17 
7417.00 5.1594e-17 
7418.50 5.1492e-17 
7420.00 4.9353e-17 
7421.50 5.0169e-17 
7423.00 5.3173e-17 
7424.50 5.3400e-17 
7426.00 5.0142e-17 
7427.50 4.9846e-17 
7429.00 5.2727e-17 
7430.50 5.2126e-17 
7432.00 5.0886e-17 
7433.50 5.1465e-17 
7435.00 5.0666e-17 
7436.50 4.7737e-17 
7438.00 4.8188e-17 
7439.50 4.9881e-17 
7441.00 5.0688e-17 
7442.50 5.0966e-17 
7444.00 5.0427e-17 
7445.50 4.8993e-17 
7447.00 5.0421e-17 
7448.50 5.1612e-17 
7450.00 5.1705e-17 
7451.50 5.0951e-17 
7453.00 4.9857e-17 
7454.50 4.8669e-17 
7456.00 4.7233e-17 
7457.50 4.5406e-17 
7459.00 4.5966e-17 
7460.50 4.7523e-17 
7462.00 4.9680e-17 
7463.50 5.1286e-17 
7465.00 5.1078e-17 
7466.50 4.8488e-17 
7468.00 4.4558e-17 
7469.50 4.2958e-17 
7471.00 4.5247e-17 
7472.50 5.1246e-17 
7474.00 5.2431e-17 
7475.50 4.8229e-17 
7477.00 4.7583e-17 
7478.50 5.9182e-17 
7480.00 4.7408e-17 
7481.50 4.6167e-17 
7483.00 4.7895e-17 
7484.50 4.8904e-17 
7486.00 5.0611e-17 
7487.50 5.2398e-17 
7489.00 5.2122e-17 
7490.50 4.8354e-17 
7492.00 4.8911e-17 
7493.50 4.7380e-17 
7495.00 4.5643e-17 
7496.50 4.6923e-17 
7498.00 4.9401e-17 
7499.50 4.9707e-17 
7501.00 4.7216e-17 
7502.50 5.0079e-17 
7504.00 4.7752e-17 
7505.50 4.5113e-17 
7507.00 4.7379e-17 
7508.50 4.8655e-17 
7510.00 4.8325e-17 
7511.50 4.7932e-17 
7513.00 4.8550e-17 
7514.50 4.8834e-17 
7516.00 5.0359e-17 
7517.50 5.2793e-17 
7519.00 5.2808e-17 
7520.50 5.2532e-17 
7522.00 5.3759e-17 
7523.50 5.5238e-17 
7525.00 5.0188e-17 
7526.50 4.3703e-17 
7528.00 4.6677e-17 
7529.50 4.8703e-17 
7531.00 4.8254e-17 
7532.50 4.6727e-17 
7534.00 4.8116e-17 
7535.50 5.6609e-17 
7537.00 6.0406e-17 
7538.50 5.0109e-17 
7540.00 4.9704e-17 
7541.50 4.8128e-17 
7543.00 5.0447e-17 
7544.50 5.5527e-17 
7546.00 5.5896e-17 
7547.50 5.1109e-17 
7549.00 5.1695e-17 
7550.50 5.5638e-17 
7552.00 5.3652e-17 
7553.50 5.1304e-17 
7555.00 5.1445e-17 
7556.50 5.3307e-17 
7558.00 5.3416e-17 
7559.50 5.1201e-17 
7561.00 5.4501e-17 
7562.50 5.2439e-17 
7564.00 5.1339e-17 
7565.50 5.1835e-17 
7567.00 5.2110e-17 
7568.50 5.0718e-17 
7570.00 5.0579e-17 
7571.50 5.5482e-17 
7573.00 5.3069e-17 
7574.50 5.1285e-17 
7576.00 5.1020e-17 
7577.50 5.0876e-17 
7579.00 4.9371e-17 
7580.50 4.6322e-17 
7582.00 4.4789e-17 
7583.50 4.8423e-17 
7585.00 4.9851e-17 
7586.50 4.9474e-17 
7588.00 4.8681e-17 
7589.50 4.7910e-17 
7591.00 4.6912e-17 
7592.50 4.8723e-17 
7594.00 4.5437e-17 
7595.50 5.0606e-17 
7597.00 5.6565e-17 
7598.50 5.7901e-17 
7600.00 5.6360e-17 
7601.50 5.4003e-17 
7603.00 3.3603e-17 
7604.50 4.5874e-17 
7606.00 4.7389e-17 
7607.50 4.5973e-17 
7609.00 4.8419e-17 
7610.50 4.9957e-17 
7612.00 3.9046e-17 
7613.50 5.3449e-17 
7615.00 5.3895e-17 
7616.50 5.1540e-17 
7618.00 4.8856e-17 
7619.50 4.6681e-17 
7621.00 4.5451e-17 
7622.50 4.6188e-17 
7624.00 4.6039e-17 
7625.50 4.6254e-17 
7627.00 5.0615e-17 
7628.50 5.4767e-17 
7630.00 5.3573e-17 
7631.50 4.4796e-17 
7633.00 3.8649e-17 
7634.50 5.3063e-17 
7636.00 4.6725e-17 
7637.50 4.2481e-17 
7639.00 4.4299e-17 
7640.50 4.8159e-17 
7642.00 4.7757e-17 
7643.50 4.5748e-17 
7645.00 5.2980e-17 
7646.50 5.0426e-17 
7648.00 4.7086e-17 
7649.50 4.6907e-17 
7651.00 4.9714e-17 
7652.50 5.2313e-17 
7654.00 4.9581e-17 
7655.50 4.4010e-17 
7657.00 4.4515e-17 
7658.50 4.6738e-17 
7660.00 4.7940e-17 
7661.50 4.8412e-17 
7663.00 5.2358e-17 
7664.50 5.5672e-17 
7666.00 4.8360e-17 
7667.50 4.7170e-17 
7669.00 4.9498e-17 
7670.50 5.0262e-17 
7672.00 4.7273e-17 
7673.50 4.4542e-17 
7675.00 4.7591e-17 
7676.50 5.0804e-17 
7678.00 5.1240e-17 
7679.50 4.8213e-17 
7681.00 4.3993e-17 
7682.50 4.7668e-17 
7684.00 5.2891e-17 
7685.50 4.9802e-17 
7687.00 5.0175e-17 
7688.50 5.2053e-17 
7690.00 5.2674e-17 
7691.50 5.0492e-17 
7693.00 5.0991e-17 
7694.50 5.1255e-17 
7696.00 4.8635e-17 
7697.50 4.8310e-17 
7699.00 4.8502e-17 
7700.50 4.7118e-17 
7702.00 4.8877e-17 
7703.50 5.1555e-17 
7705.00 5.1414e-17 
7706.50 4.9370e-17 
7708.00 4.6966e-17 
7709.50 4.6812e-17 
7711.00 5.1598e-17 
7712.50 4.9568e-17 
7714.00 5.1127e-17 
7715.50 5.1097e-17 
7717.00 4.7585e-17 
7718.50 4.6989e-17 
7720.00 5.3682e-17 
7721.50 5.0439e-17 
7723.00 4.6899e-17 
7724.50 4.8579e-17 
7726.00 5.0633e-17 
7727.50 5.0393e-17 
7729.00 4.7715e-17 
7730.50 4.5937e-17 
7732.00 4.9297e-17 
7733.50 4.5041e-17 
7735.00 4.4253e-17 
7736.50 4.6756e-17 
7738.00 4.9497e-17 
7739.50 4.8114e-17 
7741.00 4.3133e-17 
7742.50 4.5326e-17 
7744.00 4.5271e-17 
7745.50 4.5346e-17 
7747.00 4.6137e-17 
7748.50 4.7542e-17 
7750.00 4.8930e-17 
7751.50 5.5073e-17 
7753.00 5.7051e-17 
7754.50 5.5991e-17 
7756.00 5.3744e-17 
7757.50 5.1159e-17 
7759.00 4.6551e-17 
7760.50 4.0273e-17 
7762.00 4.7127e-17 
7763.50 5.1671e-17 
7765.00 5.3285e-17 
7766.50 5.2130e-17 
7768.00 4.8685e-17 
7769.50 4.5146e-17 
7771.00 4.6870e-17 
7772.50 4.9821e-17 
7774.00 4.7724e-17 
7775.50 4.3722e-17 
7777.00 4.6220e-17 
7778.50 5.0991e-17 
7780.00 4.8793e-17 
7781.50 4.5734e-17 
7783.00 4.7010e-17 
7784.50 4.9431e-17 
7786.00 4.7734e-17 
7787.50 4.8386e-17 
7789.00 4.9754e-17 
7790.50 5.0870e-17 
7792.00 5.1680e-17 
7793.50 5.0772e-17 
7795.00 4.7875e-17 
7796.50 5.0606e-17 
7798.00 5.2168e-17 
7799.50 4.7907e-17 
7801.00 4.5054e-17 
7802.50 4.6657e-17 
7804.00 5.1969e-17 
7805.50 4.8267e-17 
7807.00 5.2613e-17 
7808.50 4.9895e-17 
7810.00 4.6347e-17 
7811.50 4.4747e-17 
7813.00 4.6476e-17 
7814.50 5.0371e-17 
7816.00 5.2669e-17 
7817.50 4.5444e-17 
7819.00 4.6896e-17 
7820.50 5.0351e-17 
7822.00 4.7612e-17 
7823.50 3.8179e-17 
7825.00 4.2957e-17 
7826.50 4.7749e-17 
7828.00 4.8823e-17 
7829.50 4.8040e-17 
7831.00 4.8269e-17 
7832.50 5.2471e-17 
7834.00 5.3192e-17 
7835.50 4.8766e-17 
7837.00 4.8801e-17 
7838.50 5.0835e-17 
7840.00 5.0947e-17 
7841.50 5.0568e-17 
7843.00 5.1866e-17 
7844.50 5.1148e-17 
7846.00 4.8357e-17 
7847.50 4.6784e-17 
7849.00 5.0022e-17 
7850.50 5.7528e-17 
7852.00 5.8139e-17 
7853.50 5.4993e-17 
7855.00 5.2044e-17 
7856.50 5.0357e-17 
7858.00 4.9654e-17 
7859.50 4.4035e-17 
7861.00 5.8700e-17 
7862.50 5.8082e-17 
7864.00 5.3419e-17 
7865.50 5.0451e-17 
7867.00 5.2602e-17 
7868.50 5.0098e-17 
7870.00 4.7344e-17 
7871.50 4.8982e-17 
7873.00 5.2707e-17 
7874.50 5.6458e-17 
7876.00 5.8060e-17 
7877.50 5.6762e-17 
7879.00 5.5333e-17 
7880.50 5.3897e-17 
7882.00 5.2647e-17 
7883.50 5.1786e-17 
7885.00 5.1613e-17 
7886.50 5.7145e-17 
7888.00 5.7220e-17 
7889.50 5.0733e-17 
7891.00 4.5700e-17 
7892.50 4.9370e-17 
7894.00 4.9344e-17 
7895.50 4.4241e-17 
7897.00 4.5110e-17 
7898.50 4.8355e-17 
7900.00 5.0541e-17 
7901.50 4.7664e-17 
7903.00 4.8576e-17 
7904.50 5.1261e-17 
7906.00 4.9756e-17 
7907.50 4.7682e-17 
7909.00 4.7448e-17 
7910.50 5.0790e-17 
7912.00 5.3289e-17 
7913.50 5.0747e-17 
7915.00 4.0338e-17 
7916.50 3.7578e-17 
7918.00 5.3141e-17 
7919.50 6.1425e-17 
7921.00 5.2530e-17 
7922.50 5.2849e-17 
7924.00 5.0961e-17 
7925.50 4.7713e-17 
7927.00 4.9265e-17 
7928.50 5.0920e-17 
7930.00 4.8935e-17 
7931.50 4.6844e-17 
7933.00 4.6757e-17 
7934.50 4.9657e-17 
7936.00 5.5269e-17 
7937.50 4.5596e-17 
7939.00 4.5451e-17 
7940.50 4.7808e-17 
7942.00 4.9979e-17 
7943.50 4.9810e-17 
7945.00 4.9661e-17 
7946.50 4.9997e-17 
7948.00 5.2072e-17 
7949.50 5.2468e-17 
7951.00 5.0848e-17 
7952.50 5.0697e-17 
7954.00 5.2574e-17 
7955.50 5.0909e-17 
7957.00 4.9561e-17 
7958.50 4.9283e-17 
7960.00 5.0234e-17 
7961.50 4.9474e-17 
7963.00 5.0549e-17 
7964.50 5.1588e-17 
7966.00 5.1430e-17 
7967.50 5.0899e-17 
7969.00 5.4047e-17 
7970.50 5.5712e-17 
7972.00 5.2285e-17 
7973.50 5.0026e-17 
7975.00 4.9802e-17 
7976.50 5.1591e-17 
7978.00 5.1328e-17 
7979.50 5.1681e-17 
7981.00 5.5549e-17 
7982.50 5.7053e-17 
7984.00 5.4585e-17 
7985.50 5.1627e-17 
7987.00 5.2508e-17 
7988.50 5.4616e-17 
7990.00 5.9368e-17 
7991.50 6.2344e-17 
7993.00 5.7403e-17 
7994.50 5.5898e-17 
7996.00 6.2601e-17 
7997.50 6.5872e-17 
7999.00 6.3838e-17 
8000.50 5.7920e-17 
8002.00 6.4194e-17 
8003.50 5.9259e-17 
8005.00 5.8941e-17 
8006.50 5.9101e-17 
8008.00 5.8873e-17 
8009.50 5.8382e-17 
8011.00 6.3840e-17 
8012.50 6.2580e-17 
8014.00 6.0306e-17 
8015.50 5.8586e-17 
8017.00 5.8686e-17 
8018.50 6.1168e-17 
8020.00 6.1058e-17 
8021.50 5.9045e-17 
8023.00 5.8864e-17 
8024.50 6.1859e-17 
8026.00 6.5139e-17 
8027.50 5.2872e-17 
8029.00 5.3662e-17 
8030.50 6.0634e-17 
8032.00 6.7008e-17 
8033.50 5.9289e-17 
8035.00 5.9255e-17 
8036.50 6.0270e-17 
8038.00 6.0396e-17 
8039.50 6.0205e-17 
8041.00 6.0627e-17 
8042.50 6.1368e-17 
8044.00 5.9776e-17 
8045.50 5.9248e-17 
8047.00 6.0630e-17 
8048.50 6.3941e-17 
8050.00 6.4002e-17 
8051.50 6.3986e-17 
8053.00 6.5317e-17 
8054.50 6.7011e-17 
8056.00 6.8798e-17 
8057.50 7.1518e-17 
8059.00 6.6253e-17 
8060.50 7.1609e-17 
8062.00 7.3687e-17 
8063.50 7.1257e-17 
8065.00 6.7889e-17 
8066.50 8.5578e-17 
8068.00 7.9997e-17 
8069.50 7.5864e-17 
8071.00 7.4469e-17 
8072.50 7.4482e-17 
8074.00 7.3116e-17 
8075.50 7.2399e-17 
8077.00 7.2782e-17 
8078.50 7.3321e-17 
8080.00 7.3027e-17 
8081.50 7.0497e-17 
8083.00 7.1073e-17 
8084.50 7.0212e-17 
8086.00 6.8615e-17 
8087.50 6.7029e-17 
8089.00 6.9017e-17 
8090.50 6.5947e-17 
8092.00 6.6141e-17 
8093.50 6.6254e-17 
8095.00 6.4929e-17 
8096.50 6.2745e-17 
8098.00 6.2936e-17 
8099.50 6.4158e-17 
8101.00 6.6000e-17 
8102.50 6.8184e-17 
8104.00 7.0416e-17 
8105.50 6.5977e-17 
8107.00 6.2312e-17 
8108.50 5.9461e-17 
8110.00 5.7224e-17 
8111.50 5.3932e-17 
8113.00 5.6654e-17 
8114.50 5.6204e-17 
8116.00 5.5009e-17 
8117.50 5.3755e-17 
8119.00 5.3199e-17 
8120.50 5.4214e-17 
8122.00 5.4921e-17 
8123.50 5.3452e-17 
8125.00 5.1016e-17 
8126.50 5.1359e-17 
8128.00 4.6230e-17 
8129.50 4.6829e-17 
8131.00 4.9487e-17 
8132.50 5.1816e-17 
8134.00 4.9041e-17 
8135.50 5.6213e-17 
8137.00 5.2508e-17 
8138.50 5.0836e-17 
8140.00 5.1101e-17 
8141.50 5.0245e-17 
8143.00 4.6869e-17 
8144.50 4.9506e-17 
8146.00 5.1079e-17 
8147.50 5.1467e-17 
8149.00 5.1950e-17 
8150.50 4.9189e-17 
8152.00 5.0087e-17 
8153.50 5.1140e-17 
8155.00 5.0664e-17 
8156.50 4.5041e-17 
8158.00 4.9759e-17 
8159.50 4.8459e-17 
8161.00 4.7027e-17 
8162.50 4.6250e-17 
8164.00 4.6481e-17 
8165.50 4.6110e-17 
8167.00 4.5449e-17 
8168.50 4.4794e-17 
8170.00 4.4351e-17 
8171.50 4.4601e-17 
8173.00 3.5117e-17 
8174.50 3.4433e-17 
8176.00 3.8028e-17 
8177.50 4.2804e-17 
8179.00 3.9098e-17 
8180.50 4.3701e-17 
8182.00 4.7209e-17 
8183.50 4.9495e-17 
8185.00 5.0003e-17 
8186.50 4.6408e-17 
8188.00 4.2997e-17 
8189.50 4.3793e-17 
8191.00 4.4294e-17 
8192.50 4.2999e-17 
8194.00 3.8357e-17 
8195.50 3.7434e-17 
8197.00 4.0454e-17 
8198.50 4.4299e-17 
8200.00 4.7175e-17 
8201.50 4.3366e-17 
8203.00 4.4288e-17 
8204.50 4.4779e-17 
8206.00 4.4229e-17 
8207.50 4.2125e-17 
8209.00 4.1966e-17 
8210.50 4.4476e-17 
8212.00 4.5381e-17 
8213.50 4.4288e-17 
8215.00 4.0366e-17 
8216.50 4.2916e-17 
8218.00 4.2944e-17 
8219.50 4.1912e-17 
8221.00 4.0657e-17 
8222.50 4.0710e-17 
8224.00 4.2605e-17 
8225.50 4.2176e-17 
8227.00 4.1905e-17 
8228.50 4.1538e-17 
8230.00 3.8620e-17 
8231.50 4.1302e-17 
8233.00 4.4978e-17 
8234.50 4.5834e-17 
8236.00 4.3508e-17 
8237.50 4.6020e-17 
8239.00 4.4505e-17 
8240.50 4.5562e-17 
8242.00 4.6665e-17 
8243.50 4.6407e-17 
8245.00 4.1634e-17 
8246.50 4.1563e-17 
8248.00 4.3383e-17 
8249.50 4.4136e-17 
8251.00 3.9705e-17 
8252.50 4.1601e-17 
8254.00 4.3144e-17 
8255.50 4.3465e-17 
8257.00 4.3427e-17 
8258.50 4.5972e-17 
8260.00 4.3926e-17 
8261.50 4.2300e-17 
8263.00 4.2142e-17 
8264.50 4.3424e-17 
8266.00 4.2874e-17 
8267.50 4.0859e-17 
8269.00 4.1691e-17 
8270.50 4.2899e-17 
8272.00 4.3131e-17 
8273.50 4.1988e-17 
8275.00 4.0058e-17 
8276.50 3.9783e-17 
8278.00 4.0323e-17 
8279.50 4.0392e-17 
8281.00 3.5785e-17 
8282.50 4.1239e-17 
8284.00 4.4580e-17 
8285.50 4.4901e-17 
8287.00 4.6231e-17 
8288.50 4.2580e-17 
8290.00 3.8818e-17 
8291.50 3.8809e-17 
8293.00 4.4843e-17 
8294.50 4.8742e-17 
8296.00 3.8078e-17 
8297.50 3.4346e-17 
8299.00 3.6144e-17 
8300.50 4.3417e-17 
8302.00 4.7090e-17 
8303.50 4.6529e-17 
8305.00 4.4717e-17 
8306.50 4.2458e-17 
8308.00 4.2503e-17 
8309.50 4.3616e-17 
8311.00 4.4614e-17 
8312.50 4.5559e-17 
8314.00 4.6423e-17 
8315.50 4.4234e-17 
8317.00 3.6833e-17 
8318.50 3.6347e-17 
8320.00 3.9540e-17 
8321.50 3.9408e-17 
8323.00 3.7175e-17 
8324.50 3.8529e-17 
8326.00 4.0712e-17 
8327.50 4.2928e-17 
8329.00 4.1861e-17 
8330.50 4.2016e-17 
8332.00 4.2465e-17 
8333.50 4.2380e-17 
8335.00 4.0498e-17 
8336.50 3.7418e-17 
8338.00 3.8244e-17 
8339.50 4.0417e-17 
8341.00 4.4368e-17 
8342.50 5.6549e-17 
8344.00 5.8779e-17 
8345.50 5.3790e-17 
8347.00 4.6991e-17 
8348.50 4.1195e-17 
8350.00 4.6084e-17 
8351.50 4.3199e-17 
8353.00 4.3500e-17 
8354.50 4.5927e-17 
8356.00 4.5406e-17 
8357.50 4.4367e-17 
8359.00 4.3732e-17 
8360.50 4.2225e-17 
8362.00 3.9115e-17 
8363.50 4.6199e-17 
8365.00 4.4532e-17 
8366.50 4.3219e-17 
8368.00 4.2096e-17 
8369.50 4.0059e-17 
8371.00 3.8090e-17 
8372.50 3.9645e-17 
8374.00 4.0252e-17 
8375.50 3.8074e-17 
8377.00 3.8985e-17 
8378.50 3.8428e-17 
8380.00 3.9370e-17 
8381.50 4.1573e-17 
8383.00 4.5418e-17 
8384.50 4.2459e-17 
8386.00 4.0094e-17 
8387.50 3.8442e-17 
8389.00 3.7868e-17 
8390.50 3.9723e-17 
8392.00 4.0686e-17 
8393.50 4.0503e-17 
8395.00 3.9851e-17 
8396.50 4.1172e-17 
8398.00 5.2947e-17 
8399.50 4.5514e-17 
8401.00 3.6313e-17 
8402.50 3.3349e-17 
8404.00 3.8239e-17 
8405.50 3.8706e-17 
8407.00 3.9392e-17 
8408.50 3.9948e-17 
8410.00 3.6871e-17 
8411.50 3.9139e-17 
8413.00 4.1851e-17 
8414.50 4.4055e-17 
8416.00 4.4574e-17 
8417.50 3.9829e-17 
8419.00 3.5711e-17 
8420.50 3.6438e-17 
8422.00 4.2000e-17 
8423.50 4.3810e-17 
8425.00 3.9475e-17 
8426.50 4.0268e-17 
8428.00 4.4311e-17 
8429.50 5.1750e-17 
8431.00 4.2930e-17 
8432.50 3.7583e-17 
8434.00 3.5038e-17 
8435.50 3.6036e-17 
8437.00 4.1198e-17 
8438.50 4.2074e-17 
8440.00 4.1647e-17 
8441.50 4.0514e-17 
8443.00 4.0863e-17 
8444.50 3.7506e-17 
8446.00 3.7383e-17 
8447.50 3.7128e-17 
8449.00 3.3924e-17 
8450.50 4.1971e-17 
8452.00 4.9130e-17 
8453.50 4.7841e-17 
8455.00 3.7329e-17 
8456.50 4.6236e-17 
8458.00 4.2390e-17 
8459.50 4.0882e-17 
8461.00 4.1578e-17 
8462.50 4.6859e-17 
8464.00 4.8843e-17 
8465.50 4.7189e-17 
8467.00 4.4745e-17 
8468.50 4.2597e-17 
8470.00 4.7803e-17 
8471.50 4.4496e-17 
8473.00 4.1044e-17 
8474.50 3.8510e-17 
8476.00 4.2449e-17 
8477.50 4.1138e-17 
8479.00 4.0411e-17 
8480.50 3.9714e-17 
8482.00 3.7219e-17 
8483.50 3.6765e-17 
8485.00 3.8055e-17 
8486.50 3.9819e-17 
8488.00 4.1601e-17 
8489.50 4.1258e-17 
8491.00 4.2683e-17 
8492.50 4.3276e-17 
8494.00 4.2550e-17 
8495.50 3.8416e-17 
8497.00 3.9224e-17 
8498.50 4.0650e-17 
8500.00 4.1869e-17 
8501.50 3.7886e-17 
8503.00 4.4167e-17 
8504.50 4.1221e-17 
8506.00 3.6184e-17 
8507.50 3.5631e-17 
8509.00 4.0441e-17 
8510.50 4.1404e-17 
8512.00 4.1193e-17 
8513.50 4.0015e-17 
8515.00 4.0899e-17 
8516.50 4.0226e-17 
8518.00 3.9266e-17 
8519.50 3.8137e-17 
8521.00 3.7361e-17 
8522.50 3.7995e-17 
8524.00 3.9214e-17 
8525.50 4.0631e-17 
8527.00 4.0957e-17 
8528.50 3.7561e-17 
8530.00 3.7605e-17 
8531.50 3.9307e-17 
8533.00 4.2706e-17 
8534.50 4.2281e-17 
8536.00 4.0578e-17 
8537.50 3.9743e-17 
8539.00 4.1150e-17 
8540.50 3.7696e-17 
8542.00 3.8729e-17 
8543.50 4.0503e-17 
8545.00 4.2731e-17 
8546.50 4.5238e-17 
8548.00 4.8685e-17 
8549.50 4.6298e-17 
8551.00 3.9938e-17 
8552.50 4.1340e-17 
8554.00 4.0157e-17 
8555.50 3.9232e-17 
8557.00 3.8844e-17 
8558.50 4.0902e-17 
8560.00 3.9332e-17 
8561.50 3.9376e-17 
8563.00 3.9705e-17 
8564.50 3.9361e-17 
8566.00 3.8337e-17 
8567.50 3.8793e-17 
8569.00 3.9601e-17 
8570.50 4.0609e-17 
8572.00 3.8010e-17 
8573.50 3.7985e-17 
8575.00 3.7407e-17 
8576.50 3.5701e-17 
8578.00 3.9384e-17 
8579.50 4.1302e-17 
8581.00 4.1435e-17 
8582.50 3.9865e-17 
8584.00 4.0111e-17 
8585.50 4.0755e-17 
8587.00 4.1700e-17 
8588.50 4.2863e-17 
8590.00 4.4099e-17 
8591.50 4.2086e-17 
8593.00 3.9270e-17 
8594.50 3.6340e-17 
8596.00 3.5519e-17 
8597.50 3.6208e-17 
8599.00 3.8279e-17 
8600.50 4.0618e-17 
8602.00 4.1896e-17 
8603.50 4.1774e-17 
8605.00 4.1570e-17 
8606.50 4.1085e-17 
8608.00 3.9753e-17 
8609.50 3.9926e-17 
8611.00 4.0417e-17 
8612.50 4.0421e-17 
8614.00 3.9112e-17 
8615.50 4.0239e-17 
8617.00 4.3469e-17 
8618.50 4.6039e-17 
8620.00 4.6941e-17 
8621.50 4.3770e-17 
8623.00 4.9608e-17 
8624.50 5.1724e-17 
8626.00 4.7403e-17 
8627.50 4.5079e-17 
8629.00 5.0621e-17 
8630.50 5.1135e-17 
8632.00 4.5249e-17 
8633.50 4.0003e-17 
8635.00 4.4878e-17 
8636.50 4.5998e-17 
8638.00 4.3268e-17 
8639.50 4.0556e-17 
8641.00 4.4440e-17 
8642.50 4.4832e-17 
8644.00 4.2313e-17 
8645.50 4.1344e-17 
8647.00 4.3383e-17 
8648.50 4.3513e-17 
8650.00 4.2060e-17 
8651.50 3.6895e-17 
8653.00 3.9693e-17 
8654.50 4.6940e-17 
8656.00 5.5721e-17 
8657.50 4.5057e-17 
8659.00 4.5879e-17 
8660.50 4.7101e-17 
8662.00 4.8391e-17 
8663.50 4.7720e-17 
8665.00 4.5974e-17 
8666.50 4.3572e-17 
8668.00 4.1410e-17 
8669.50 4.5395e-17 
8671.00 4.6826e-17 
8672.50 4.7771e-17 
8674.00 4.8152e-17 
8675.50 4.5508e-17 
8677.00 4.2258e-17 
8678.50 4.2804e-17 
8680.00 4.4901e-17 
8681.50 4.5037e-17 
8683.00 3.7549e-17 
8684.50 3.7030e-17 
8686.00 3.9782e-17 
8687.50 4.3352e-17 
8689.00 3.9599e-17 
8690.50 3.9713e-17 
8692.00 4.0991e-17 
8693.50 3.7258e-17 
8695.00 4.0733e-17 
8696.50 4.2994e-17 
8698.00 4.4413e-17 
8699.50 4.2852e-17 
8701.00 4.0567e-17 
8702.50 3.8985e-17 
8704.00 3.8175e-17 
8705.50 4.1906e-17 
8707.00 4.2703e-17 
8708.50 4.1843e-17 
8710.00 4.0142e-17 
8711.50 3.9029e-17 
8713.00 3.9893e-17 
8714.50 3.9658e-17 
8716.00 3.8813e-17 
8717.50 3.8446e-17 
8719.00 3.9448e-17 
8720.50 4.0560e-17 
8722.00 4.1731e-17 
8723.50 4.1845e-17 
8725.00 4.0897e-17 
8726.50 4.0571e-17 
8728.00 4.0702e-17 
8729.50 4.1325e-17 
8731.00 4.0255e-17 
8732.50 3.9912e-17 
8734.00 4.0183e-17 
8735.50 4.0920e-17 
8737.00 4.0164e-17 
8738.50 3.9488e-17 
8740.00 3.8870e-17 
8741.50 3.9397e-17 
8743.00 3.9575e-17 
8744.50 3.9282e-17 
8746.00 3.8366e-17 
8747.50 4.0727e-17 
8749.00 4.2451e-17 
8750.50 4.1467e-17 
8752.00 3.6070e-17 
8753.50 3.7052e-17 
8755.00 3.8520e-17 
8756.50 4.0061e-17 
8758.00 4.1805e-17 
8759.50 4.7885e-17 
8761.00 4.9543e-17 
8762.50 4.7474e-17 
8764.00 3.6501e-17 
8765.50 5.1175e-17 
8767.00 5.9665e-17 
8768.50 6.3256e-17 
8770.00 5.2406e-17 
8771.50 4.5175e-17 
8773.00 4.6348e-17 
8774.50 4.8769e-17 
8776.00 4.4476e-17 
8777.50 5.6202e-17 
8779.00 5.3080e-17 
8780.50 4.4556e-17 
8782.00 4.2805e-17 
8783.50 4.5146e-17 
8785.00 4.3423e-17 
8786.50 3.9555e-17 
8788.00 4.3220e-17 
8789.50 4.3382e-17 
8791.00 4.2709e-17 
8792.50 4.1278e-17 
8794.00 4.1457e-17 
8795.50 4.2905e-17 
8797.00 4.3712e-17 
8798.50 4.3715e-17 
8800.00 4.0187e-17 
8801.50 4.1262e-17 
8803.00 4.1815e-17 
8804.50 4.0701e-17 
8806.00 3.6944e-17 
8807.50 3.7849e-17 
8809.00 4.0089e-17 
8810.50 4.4738e-17 
8812.00 3.9967e-17 
8813.50 4.0260e-17 
8815.00 4.1635e-17 
8816.50 4.1622e-17 
8818.00 4.2959e-17 
8819.50 4.2785e-17 
8821.00 4.1519e-17 
8822.50 3.4655e-17 
8824.00 4.0880e-17 
8825.50 6.2682e-17 
8827.00 9.7589e-17 
8828.50 5.3659e-17 
8830.00 2.5316e-17 
8831.50 1.8779e-17 
8833.00 4.1134e-17 
8834.50 5.0549e-17 
8836.00 5.4034e-17 
8837.50 5.0080e-17 
8839.00 2.8931e-17 
8840.50 3.2843e-17 
8842.00 3.7086e-17 
8843.50 4.0336e-17 
8845.00 3.8741e-17 
8846.50 3.7677e-17 
8848.00 3.8946e-17 
8849.50 4.1566e-17 
8851.00 4.8889e-17 
8852.50 4.6227e-17 
8854.00 4.3472e-17 
8855.50 4.0411e-17 
8857.00 3.6970e-17 
8858.50 3.6712e-17 
8860.00 3.8799e-17 
8861.50 4.4594e-17 
8863.00 4.3323e-17 
8864.50 4.1284e-17 
8866.00 4.1507e-17 
8867.50 4.8620e-17 
8869.00 4.7982e-17 
8870.50 4.2149e-17 
8872.00 3.6972e-17 
8873.50 4.6160e-17 
8875.00 4.0935e-17 
8876.50 3.9488e-17 
8878.00 3.9960e-17 
8879.50 4.0014e-17 
8881.00 3.8053e-17 
8882.50 3.9653e-17 
8884.00 4.5763e-17 
8885.50 6.5039e-17 
8887.00 4.9430e-17 
8888.50 4.1011e-17 
8890.00 5.7835e-17 
8891.50 5.6375e-17 
8893.00 4.7553e-17 
8894.50 3.8342e-17 
8896.00 3.9557e-17 
8897.50 3.8118e-17 
8899.00 3.8792e-17 
8900.50 4.0829e-17 
8902.00 5.1082e-17 
8903.50 4.6470e-17 
8905.00 4.0980e-17 
8906.50 3.3325e-17 
8908.00 3.6500e-17 
8909.50 3.8749e-17 
8911.00 3.9921e-17 
8912.50 3.7876e-17 
8914.00 3.7529e-17 
8915.50 4.0728e-17 
8917.00 4.5567e-17 
8918.50 5.4375e-17 
8920.00 5.7289e-17 
8921.50 5.9903e-17 
8923.00 6.2670e-17 
8924.50 6.8973e-17 
8926.00 5.7880e-17 
8927.50 4.7721e-17 
8929.00 3.9270e-17 
8930.50 4.0818e-17 
8932.00 4.2302e-17 
8933.50 4.3911e-17 
8935.00 4.6314e-17 
8936.50 4.0207e-17 
8938.00 3.7715e-17 
8939.50 3.7153e-17 
8941.00 4.2674e-17 
8942.50 4.2577e-17 
8944.00 4.1045e-17 
8945.50 3.6667e-17 
8947.00 3.9688e-17 
8948.50 4.0482e-17 
8950.00 4.0529e-17 
8951.50 3.8387e-17 
8953.00 3.7466e-17 
8954.50 4.1062e-17 
8956.00 4.7414e-17 
8957.50 5.4063e-17 
8959.00 3.6710e-17 
8960.50 2.5320e-17 
8962.00 2.1671e-17 
8963.50 4.2993e-17 
8965.00 4.5263e-17 
8966.50 4.3154e-17 
8968.00 3.3190e-17 
8969.50 3.7631e-17 
8971.00 3.9106e-17 
8972.50 3.9114e-17 
8974.00 3.7095e-17 
8975.50 3.8079e-17 
8977.00 3.8511e-17 
8978.50 3.7958e-17 
8980.00 3.7248e-17 
8981.50 3.8058e-17 
8983.00 3.9104e-17 
8984.50 3.9679e-17 
8986.00 4.2226e-17 
8987.50 4.2099e-17 
8989.00 4.0058e-17 
8990.50 3.1153e-17 
8992.00 3.2066e-17 
8993.50 3.4728e-17 
8995.00 4.1696e-17 
8996.50 3.1908e-17 
8998.00 3.6454e-17 
8999.50 4.4792e-17 
9001.00 4.6450e-17 
9002.50 4.4679e-17 
9004.00 4.3974e-17 
9005.50 4.4265e-17 
9007.00 4.2738e-17 
9008.50 3.8960e-17 
9010.00 3.5853e-17 
9011.50 3.6253e-17 
9013.00 3.6234e-17 
9014.50 3.4960e-17 
9016.00 3.2931e-17 
9017.50 3.1761e-17 
9019.00 3.3369e-17 
9020.50 3.4368e-17 
9022.00 3.4357e-17 
9023.50 3.6640e-17 
9025.00 3.5616e-17 
9026.50 3.3969e-17 
9028.00 3.4283e-17 
9029.50 3.5917e-17 
9031.00 3.6296e-17 
9032.50 3.5486e-17 
9034.00 3.5258e-17 
9035.50 3.8768e-17 
9037.00 4.2618e-17 
9038.50 4.6942e-17 
9040.00 4.2679e-17 
9041.50 4.0703e-17 
9043.00 3.9662e-17 
9044.50 4.5434e-17 
9046.00 4.1586e-17 
9047.50 4.1286e-17 
9049.00 5.0851e-17 
9050.50 3.6604e-17 
9052.00 3.2707e-17 
9053.50 3.2200e-17 
9055.00 4.1715e-17 
9056.50 3.8716e-17 
9058.00 3.6309e-17 
9059.50 3.4088e-17 
9061.00 3.6717e-17 
9062.50 3.8617e-17 
9064.00 4.0349e-17 
9065.50 4.1196e-17 
9067.00 4.0400e-17 
9068.50 3.9721e-17 
9070.00 3.8960e-17 
9071.50 4.0176e-17 
9073.00 4.0165e-17 
9074.50 3.9917e-17 
9076.00 3.9069e-17 
9077.50 3.7214e-17 
9079.00 3.6582e-17 
9080.50 3.6716e-17 
9082.00 4.0013e-17 
9083.50 3.9536e-17 
9085.00 3.8768e-17 
9086.50 3.7704e-17 
9088.00 3.6471e-17 
9089.50 3.6128e-17 
9091.00 3.6221e-17 
9092.50 3.7912e-17 
9094.00 3.8346e-17 
9095.50 3.8276e-17 
9097.00 3.6588e-17 
9098.50 3.6434e-17 
9100.00 3.6133e-17 
9101.50 3.5712e-17 
9103.00 3.8045e-17 
9104.50 3.9842e-17 
9106.00 4.1074e-17 
9107.50 4.1031e-17 
9109.00 3.9990e-17 
9110.50 3.8413e-17 
9112.00 3.6386e-17 
9113.50 3.4380e-17 
9115.00 3.6773e-17 
9116.50 3.8430e-17 
9118.00 3.8429e-17 
9119.50 3.3915e-17 
9121.00 3.5422e-17 
9122.50 3.9526e-17 
9124.00 3.9060e-17 
9125.50 3.6562e-17 
9127.00 3.4850e-17 
9128.50 3.4845e-17 
9130.00 3.6299e-17 
9131.50 3.6549e-17 
9133.00 3.6337e-17 
9134.50 3.6708e-17 
9136.00 3.5685e-17 
9137.50 3.5212e-17 
9139.00 3.6343e-17 
9140.50 3.7237e-17 
9142.00 3.7636e-17 
9143.50 3.7879e-17 
9145.00 3.7623e-17 
9146.50 3.6001e-17 
9148.00 3.5229e-17 
9149.50 3.7474e-17 
9151.00 3.7835e-17 
9152.50 3.7299e-17 
9154.00 3.6123e-17 
9155.50 3.5119e-17 
9157.00 3.6030e-17 
9158.50 3.7264e-17 
9160.00 3.9933e-17 
9161.50 3.9121e-17 
9163.00 3.8969e-17 
9164.50 3.9261e-17 
9166.00 3.6868e-17 
9167.50 3.6119e-17 
9169.00 3.6043e-17 
9170.50 3.9748e-17 
9172.00 3.9554e-17 
9173.50 3.8503e-17 
9175.00 3.6123e-17 
9176.50 3.8050e-17 
9178.00 3.8766e-17 
9179.50 3.9179e-17 
9181.00 3.7743e-17 
9182.50 3.7267e-17 
9184.00 3.7036e-17 
9185.50 3.7101e-17 
9187.00 3.8904e-17 
9188.50 3.8952e-17 
9190.00 3.8519e-17 
9191.50 3.7858e-17 
9193.00 3.7762e-17 
9194.50 3.7541e-17 
9196.00 3.6878e-17 
9197.50 3.6799e-17 
9199.00 3.6635e-17 
9200.50 3.6392e-17 
9202.00 3.3019e-17 
9203.50 3.5382e-17 
9205.00 3.8068e-17 
9206.50 4.1737e-17 
9208.00 3.8734e-17 
9209.50 3.8288e-17 
9211.00 3.9990e-17 
9212.50 3.9104e-17 
9214.00 3.9607e-17 
9215.50 3.9989e-17 
9217.00 3.5293e-17 
9218.50 3.4236e-17 
9220.00 3.5207e-17 
9221.50 4.0364e-17 
9223.00 3.7268e-17 
9224.50 3.9893e-17 
9226.00 4.4908e-17 
9227.50 3.7700e-17 
9229.00 3.5203e-17 
9230.50 3.3847e-17 
9232.00 3.6486e-17 
9233.50 3.6462e-17 
9235.00 3.5945e-17 
9236.50 3.4834e-17 
9238.00 3.5143e-17 
9239.50 3.5942e-17 
9241.00 3.6886e-17 
9242.50 3.8696e-17 
9244.00 3.8435e-17 
9245.50 3.7734e-17 
9247.00 3.5787e-17 
9248.50 3.6903e-17 
9250.00 3.8484e-17 
9251.50 4.0594e-17 
9253.00 3.6470e-17 
9254.50 3.6049e-17 
9256.00 3.6031e-17 
9257.50 3.7467e-17 
9259.00 3.6485e-17 
9260.50 3.6883e-17 
9262.00 3.9002e-17 
9263.50 3.3891e-17 
9265.00 3.5152e-17 
9266.50 3.7911e-17 
9268.00 3.8202e-17 
9269.50 3.5824e-17 
9271.00 3.4405e-17 
9272.50 3.5551e-17 
9274.00 3.5972e-17 
9275.50 3.6381e-17 
9277.00 3.6942e-17 
9278.50 3.6246e-17 
9280.00 3.7210e-17 
9281.50 3.8362e-17 
9283.00 3.7805e-17 
9284.50 3.5106e-17 
9286.00 3.4899e-17 
9287.50 4.0748e-17 
9289.00 4.1775e-17 
9290.50 3.9580e-17 
9292.00 3.4823e-17 
9293.50 3.6640e-17 
9295.00 3.7683e-17 
9296.50 3.8208e-17 
9298.00 3.2501e-17 
9299.50 3.7641e-17 
9301.00 3.8279e-17 
9302.50 2.9689e-17 
9304.00 4.3587e-17 
9305.50 4.2838e-17 
9307.00 3.4358e-17 
9308.50 2.7893e-17 
9310.00 4.7459e-17 
9311.50 6.7716e-17 
9313.00 6.3953e-17 
9314.50 5.8615e-17 
9316.00 5.8002e-17 
9317.50 6.7268e-17 
9319.00 5.7220e-17 
9320.50 4.5280e-17 
9322.00 2.8164e-17 
9323.50 2.4928e-17 
9325.00 2.7926e-17 
9326.50 3.3089e-17 
9328.00 6.3421e-17 
9329.50 5.4808e-17 
9331.00 4.7241e-17 
9332.50 3.7263e-17 
9334.00 3.9856e-17 
9335.50 4.0009e-17 
9337.00 3.8565e-17 
9338.50 4.2657e-17 
9340.00 5.1823e-17 
9341.50 6.2037e-17 
9343.00 5.4382e-17 
9344.50 4.5344e-17 
9346.00 3.8395e-17 
9347.50 3.5011e-17 
9349.00 3.6729e-17 
9350.50 3.6121e-17 
9352.00 3.2866e-17 
9353.50 3.6049e-17 
9355.00 3.8956e-17 
9356.50 4.2304e-17 
9358.00 3.7884e-17 
9359.50 3.7331e-17 
9361.00 3.7918e-17 
9362.50 4.6407e-17 
9364.00 4.0011e-17 
9365.50 3.7087e-17 
9367.00 3.8130e-17 
9368.50 3.6808e-17 
9370.00 3.5466e-17 
9371.50 3.3632e-17 
9373.00 6.4946e-17 
9374.50 6.2113e-17 
9376.00 5.5158e-17 
9377.50 4.3170e-17 
9379.00 3.5784e-17 
9380.50 3.5254e-17 
9382.00 5.9855e-17 
9383.50 6.1830e-17 
9385.00 5.4730e-17 
9386.50 3.3776e-17 
9388.00 3.6153e-17 
9389.50 3.4291e-17 
9391.00 3.0637e-17 
9392.50 3.2257e-17 
9394.00 3.3344e-17 
9395.50 3.4521e-17 
9397.00 3.7514e-17 
9398.50 3.9157e-17 
9400.00 4.0816e-17 
9401.50 4.3841e-17 
9403.00 5.3080e-17 
9404.50 5.3918e-17 
9406.00 4.7972e-17 
9407.50 3.6351e-17 
9409.00 3.4644e-17 
9410.50 3.5173e-17 
9412.00 3.8231e-17 
9413.50 3.4515e-17 
9415.00 3.1431e-17 
9416.50 3.8151e-17 
9418.00 4.7924e-17 
9419.50 5.0683e-17 
9421.00 3.6452e-17 
9422.50 2.1843e-17 
9424.00 1.8974e-17 
9425.50 2.5065e-17 
9427.00 4.2211e-17 
9428.50 3.9745e-17 
9430.00 3.0909e-17 
9431.50 4.1774e-17 
9433.00 4.0946e-17 
9434.50 3.9092e-17 
9436.00 3.1625e-17 
9437.50 4.3476e-17 
9439.00 5.4153e-17 
9440.50 6.9476e-17 
9442.00 2.4772e-17 
9443.50 1.7971e-17 
9445.00 5.3391e-17 
9446.50 4.9203e-17 
9448.00 4.2601e-17 
9449.50 3.2377e-17 
9451.00 3.3358e-17 
9452.50 3.1050e-17 
9454.00 2.8127e-17 
9455.50 3.8539e-17 
9457.00 4.9045e-17 
9458.50 5.6854e-17 
9460.00 4.9544e-17 
9461.50 5.2277e-17 
9463.00 5.4642e-17 
9464.50 5.8263e-17 
9466.00 4.2054e-17 
9467.50 3.6164e-17 
9469.00 3.5728e-17 
9470.50 3.5279e-17 
9472.00 3.4395e-17 
9473.50 3.3099e-17 
9475.00 3.4378e-17 
9476.50 3.0109e-17 
9478.00 2.4986e-17 
9479.50 1.2032e-17 
9481.00 3.1084e-17 
9482.50 4.7234e-17 
9484.00 5.7367e-17 
9485.50 4.6033e-17 
9487.00 3.8317e-17 
9488.50 3.1583e-17 
9490.00 3.4029e-17 
9491.50 3.3840e-17 
9493.00 3.1097e-17 
9494.50 2.9912e-17 
9496.00 3.0288e-17 
9497.50 3.1394e-17 
9499.00 2.6162e-17 
