Wavelength (Angstroms) Flux (erg/s/cm2/A)
# start
3400.00 0
3401.50 0
3403.00 0
3404.50 0
3406.00 0
3407.50 0
3409.00 0
3410.50 0
3412.00 0
3413.50 0
3415.00 0
3416.50 0
3418.00 0
3419.50 0
3421.00 0
3422.50 0
3424.00 0
3425.50 0
3427.00 0
3428.50 0
3430.00 0
3431.50 0
3433.00 0
3434.50 0
3436.00 0
3437.50 0
3439.00 0
3440.50 0
3442.00 0
3443.50 0
3445.00 0
3446.50 0
3448.00 0
3449.50 0
3451.00 0
3452.50 0
3454.00 0
3455.50 0
3457.00 0
3458.50 0
3460.00 0
3461.50 0
3463.00 0
3464.50 0
3466.00 0
3467.50 0
3469.00 0
3470.50 0
3472.00 0
3473.50 0
3475.00 0
3476.50 0
3478.00 0
3479.50 0
3481.00 0
3482.50 0
3484.00 0
3485.50 0
3487.00 0
3488.50 0
3490.00 0
3491.50 0
3493.00 0
3494.50 0
3496.00 0
3497.50 0
3499.00 0
3500.50 0
3502.00 0
3503.50 0
3505.00 0
3506.50 0
3508.00 0
3509.50 0
3511.00 0
3512.50 0
3514.00 0
3515.50 0
3517.00 0
3518.50 0
3520.00 0
3521.50 0
3523.00 0
3524.50 0
3526.00 0
3527.50 0
3529.00 0
3530.50 0
3532.00 0
3533.50 0
3535.00 0
3536.50 0
3538.00 0
3539.50 0
3541.00 0
3542.50 0
3544.00 0
3545.50 0
3547.00 0
3548.50 0
3550.00 0
3551.50 0
3553.00 0
3554.50 0
3556.00 0
3557.50 0
3559.00 0
3560.50 0
3562.00 0
3563.50 0
3565.00 0
3566.50 0
3568.00 0
3569.50 0
3571.00 0
3572.50 0
3574.00 0
3575.50 0
3577.00 0
3578.50 0
3580.00 0
3581.50 0
3583.00 0
3584.50 0
3586.00 0
3587.50 0
3589.00 0
3590.50 0
3592.00 0
3593.50 0
3595.00 0
3596.50 0
3598.00 0
3599.50 0
3601.00 0
3602.50 0
3604.00 0
3605.50 0
3607.00 0
3608.50 0
3610.00 0
3611.50 0
3613.00 0
3614.50 0
3616.00 0
3617.50 0
3619.00 0
3620.50 0
3622.00 0
3623.50 0
3625.00 0
3626.50 0
3628.00 0
3629.50 0
3631.00 0
3632.50 0
3634.00 0
3635.50 0
3637.00 0
3638.50 0
3640.00 0
3641.50 0
3643.00 0
3644.50 0
3646.00 0
3647.50 0
3649.00 0
3650.50 0
3652.00 0
3653.50 0
3655.00 0
3656.50 0
3658.00 0
3659.50 0
3661.00 0
3662.50 0
3664.00 0
3665.50 0
3667.00 0
3668.50 0
3670.00 0
3671.50 0
3673.00 0
3674.50 0
3676.00 0
3677.50 0
3679.00 0
3680.50 0
3682.00 0
3683.50 0
3685.00 0
3686.50 0
3688.00 0
3689.50 0
3691.00 0
3692.50 0
3694.00 0
3695.50 0
3697.00 0
3698.50 0
3700.00 0
3701.50 0
3703.00 0
3704.50 0
3706.00 0
3707.50 0
3709.00 0
3710.50 0
3712.00 0
3713.50 0
3715.00 0
3716.50 0
3718.00 0
3719.50 0
3721.00 0
3722.50 0
3724.00 0
3725.50 0
3727.00 0
3728.50 0
3730.00 0
3731.50 0
3733.00 0
3734.50 0
3736.00 0
3737.50 0
3739.00 0
3740.50 0
3742.00 0
3743.50 0
3745.00 0
3746.50 0
3748.00 0
3749.50 0
3751.00 0
3752.50 0
3754.00 0
3755.50 0
3757.00 0
3758.50 0
3760.00 0
3761.50 0
3763.00 0
3764.50 0
3766.00 0
3767.50 0
3769.00 0
3770.50 0
3772.00 0
3773.50 0
3775.00 0
3776.50 0
3778.00 0
3779.50 0
3781.00 0
3782.50 0
3784.00 0
3785.50 0
3787.00 0
3788.50 0
3790.00 0
3791.50 0
3793.00 0
3794.50 0
3796.00 0
3797.50 0
3799.00 1.8863e-16 
3800.50 1.8293e-16 
3802.00 1.5219e-16 
3803.50 1.7165e-16 
3805.00 1.1556e-16 
3806.50 9.9322e-17 
3808.00 1.0744e-16 
3809.50 2.2784e-16 
3811.00 1.8697e-16 
3812.50 1.1602e-16 
3814.00 7.1164e-17 
3815.50 1.6526e-16 
3817.00 2.0591e-16 
3818.50 2.1989e-16 
3820.00 1.9583e-16 
3821.50 2.0264e-16 
3823.00 2.4926e-16 
3824.50 2.1656e-16 
3826.00 2.2040e-16 
3827.50 1.4579e-16 
3829.00 2.1024e-16 
3830.50 2.5926e-16 
3832.00 2.2173e-16 
3833.50 2.3835e-16 
3835.00 2.3586e-16 
3836.50 1.8055e-16 
3838.00 2.0521e-16 
3839.50 1.7993e-16 
3841.00 2.4395e-16 
3842.50 2.0874e-16 
3844.00 2.2530e-16 
3845.50 1.7008e-16 
3847.00 1.7308e-16 
3848.50 1.8510e-16 
3850.00 1.9434e-16 
3851.50 1.9757e-16 
3853.00 2.0043e-16 
3854.50 2.0504e-16 
3856.00 2.4242e-16 
3857.50 2.1578e-16 
3859.00 1.8388e-16 
3860.50 2.3730e-16 
3862.00 1.6821e-16 
3863.50 1.6386e-16 
3865.00 1.5937e-16 
3866.50 1.5762e-16 
3868.00 1.7024e-16 
3869.50 1.5003e-16 
3871.00 1.4815e-16 
3872.50 1.5311e-16 
3874.00 1.7066e-16 
3875.50 1.8925e-16 
3877.00 2.1810e-16 
3878.50 1.9965e-16 
3880.00 2.0444e-16 
3881.50 1.9949e-16 
3883.00 2.2334e-16 
3884.50 1.5628e-16 
3886.00 1.9389e-16 
3887.50 1.9431e-16 
3889.00 1.5280e-16 
3890.50 1.7942e-16 
3892.00 1.9873e-16 
3893.50 2.1032e-16 
3895.00 2.0555e-16 
3896.50 1.8144e-16 
3898.00 1.8045e-16 
3899.50 1.1799e-16 
3901.00 1.6723e-16 
3902.50 2.1419e-16 
3904.00 1.5698e-16 
3905.50 1.4787e-16 
3907.00 1.9702e-16 
3908.50 2.4852e-16 
3910.00 1.7179e-16 
3911.50 1.4747e-16 
3913.00 1.5682e-16 
3914.50 1.0117e-16 
3916.00 1.3852e-16 
3917.50 1.5974e-16 
3919.00 1.6592e-16 
3920.50 2.1395e-16 
3922.00 2.1235e-16 
3923.50 2.0708e-16 
3925.00 1.9813e-16 
3926.50 2.0434e-16 
3928.00 1.8800e-16 
3929.50 1.7494e-16 
3931.00 2.0867e-16 
3932.50 1.9270e-16 
3934.00 1.6429e-16 
3935.50 1.6978e-16 
3937.00 1.5797e-16 
3938.50 1.1851e-16 
3940.00 1.4023e-16 
3941.50 1.5992e-16 
3943.00 1.6921e-16 
3944.50 1.7493e-16 
3946.00 1.8551e-16 
3947.50 1.6447e-16 
3949.00 1.9201e-16 
3950.50 1.9151e-16 
3952.00 1.8040e-16 
3953.50 1.9164e-16 
3955.00 1.4221e-16 
3956.50 1.7803e-16 
3958.00 1.6330e-16 
3959.50 2.0173e-16 
3961.00 1.7744e-16 
3962.50 2.2261e-16 
3964.00 1.7249e-16 
3965.50 1.2949e-16 
3967.00 1.9716e-16 
3968.50 1.3846e-16 
3970.00 1.7885e-16 
3971.50 1.4440e-16 
3973.00 1.9436e-16 
3974.50 1.8718e-16 
3976.00 1.5411e-16 
3977.50 1.6303e-16 
3979.00 1.6196e-16 
3980.50 1.6059e-16 
3982.00 1.4340e-16 
3983.50 1.7551e-16 
3985.00 1.7075e-16 
3986.50 1.9610e-16 
3988.00 1.7875e-16 
3989.50 1.6801e-16 
3991.00 1.8439e-16 
3992.50 1.8291e-16 
3994.00 1.5841e-16 
3995.50 1.6053e-16 
3997.00 1.8963e-16 
3998.50 1.7948e-16 
4000.00 1.6008e-16 
4001.50 1.5609e-16 
4003.00 1.7744e-16 
4004.50 1.8380e-16 
4006.00 1.8400e-16 
4007.50 1.8954e-16 
4009.00 1.4513e-16 
4010.50 1.3559e-16 
4012.00 1.7128e-16 
4013.50 1.4782e-16 
4015.00 1.8784e-16 
4016.50 2.0423e-16 
4018.00 1.9260e-16 
4019.50 2.2068e-16 
4021.00 1.6969e-16 
4022.50 1.7696e-16 
4024.00 1.7879e-16 
4025.50 2.1470e-16 
4027.00 1.8813e-16 
4028.50 1.7882e-16 
4030.00 1.7825e-16 
4031.50 1.5916e-16 
4033.00 1.7901e-16 
4034.50 1.8230e-16 
4036.00 1.3419e-16 
4037.50 1.5796e-16 
4039.00 1.9142e-16 
4040.50 2.0566e-16 
4042.00 1.8241e-16 
4043.50 1.5634e-16 
4045.00 1.5784e-16 
4046.50 1.7951e-16 
4048.00 1.6649e-16 
4049.50 1.8289e-16 
4051.00 1.5887e-16 
4052.50 1.8185e-16 
4054.00 1.8079e-16 
4055.50 1.9410e-16 
4057.00 1.7011e-16 
4058.50 1.8753e-16 
4060.00 1.5076e-16 
4061.50 1.5530e-16 
4063.00 2.0459e-16 
4064.50 2.1258e-16 
4066.00 2.0549e-16 
4067.50 2.1642e-16 
4069.00 2.0271e-16 
4070.50 1.7380e-16 
4072.00 1.8165e-16 
4073.50 1.9738e-16 
4075.00 1.8411e-16 
4076.50 1.6074e-16 
4078.00 1.7811e-16 
4079.50 2.0609e-16 
4081.00 1.8449e-16 
4082.50 1.8800e-16 
4084.00 1.7226e-16 
4085.50 1.7376e-16 
4087.00 1.9868e-16 
4088.50 1.7972e-16 
4090.00 1.2612e-16 
4091.50 1.1620e-16 
4093.00 1.5084e-16 
4094.50 1.7410e-16 
4096.00 1.8634e-16 
4097.50 1.9020e-16 
4099.00 1.8276e-16 
4100.50 2.0078e-16 
4102.00 1.9162e-16 
4103.50 2.1297e-16 
4105.00 1.9987e-16 
4106.50 1.8200e-16 
4108.00 1.6121e-16 
4109.50 1.9427e-16 
4111.00 2.0413e-16 
4112.50 1.5684e-16 
4114.00 1.9405e-16 
4115.50 2.0401e-16 
4117.00 1.7741e-16 
4118.50 1.7023e-16 
4120.00 1.9791e-16 
4121.50 1.6743e-16 
4123.00 1.4907e-16 
4124.50 1.9815e-16 
4126.00 2.1048e-16 
4127.50 1.9997e-16 
4129.00 1.9200e-16 
4130.50 1.8899e-16 
4132.00 2.0168e-16 
4133.50 1.7809e-16 
4135.00 1.8236e-16 
4136.50 1.9180e-16 
4138.00 1.8236e-16 
4139.50 1.7655e-16 
4141.00 1.5045e-16 
4142.50 1.4946e-16 
4144.00 1.7157e-16 
4145.50 1.7263e-16 
4147.00 1.8366e-16 
4148.50 1.6482e-16 
4150.00 1.6456e-16 
4151.50 1.7965e-16 
4153.00 1.9309e-16 
4154.50 1.7524e-16 
4156.00 1.8526e-16 
4157.50 1.7113e-16 
4159.00 1.7705e-16 
4160.50 1.6239e-16 
4162.00 1.7559e-16 
4163.50 1.6914e-16 
4165.00 1.8695e-16 
4166.50 1.6724e-16 
4168.00 1.5969e-16 
4169.50 1.7132e-16 
4171.00 1.5019e-16 
4172.50 1.7021e-16 
4174.00 1.6880e-16 
4175.50 1.9379e-16 
4177.00 1.6585e-16 
4178.50 1.3058e-16 
4180.00 1.6202e-16 
4181.50 1.4828e-16 
4183.00 1.7826e-16 
4184.50 1.7400e-16 
4186.00 1.6377e-16 
4187.50 1.8784e-16 
4189.00 1.5062e-16 
4190.50 1.9759e-16 
4192.00 1.7210e-16 
4193.50 1.6651e-16 
4195.00 1.8094e-16 
4196.50 1.8231e-16 
4198.00 1.2750e-16 
4199.50 1.5417e-16 
4201.00 1.4877e-16 
4202.50 1.6690e-16 
4204.00 1.6523e-16 
4205.50 1.6921e-16 
4207.00 1.4904e-16 
4208.50 1.6924e-16 
4210.00 1.6203e-16 
4211.50 1.4909e-16 
4213.00 1.5529e-16 
4214.50 1.6999e-16 
4216.00 1.4060e-16 
4217.50 1.6414e-16 
4219.00 1.7158e-16 
4220.50 1.5662e-16 
4222.00 1.7044e-16 
4223.50 1.4475e-16 
4225.00 1.5562e-16 
4226.50 1.5339e-16 
4228.00 1.7052e-16 
4229.50 1.5722e-16 
4231.00 1.5250e-16 
4232.50 1.8217e-16 
4234.00 1.4933e-16 
4235.50 1.5237e-16 
4237.00 1.4373e-16 
4238.50 1.5189e-16 
4240.00 1.4843e-16 
4241.50 1.6695e-16 
4243.00 1.4288e-16 
4244.50 1.8642e-16 
4246.00 1.5747e-16 
4247.50 1.5516e-16 
4249.00 1.4407e-16 
4250.50 1.3873e-16 
4252.00 1.4300e-16 
4253.50 1.3602e-16 
4255.00 1.3880e-16 
4256.50 1.5540e-16 
4258.00 1.5012e-16 
4259.50 1.6174e-16 
4261.00 1.4461e-16 
4262.50 1.6093e-16 
4264.00 1.7270e-16 
4265.50 1.4745e-16 
4267.00 1.4376e-16 
4268.50 1.4959e-16 
4270.00 1.4521e-16 
4271.50 1.4330e-16 
4273.00 1.6030e-16 
4274.50 1.5947e-16 
4276.00 1.4849e-16 
4277.50 1.4968e-16 
4279.00 1.5089e-16 
4280.50 1.6421e-16 
4282.00 1.6110e-16 
4283.50 1.5558e-16 
4285.00 1.3187e-16 
4286.50 1.0748e-16 
4288.00 1.0073e-16 
4289.50 1.2384e-16 
4291.00 1.5551e-16 
4292.50 1.6318e-16 
4294.00 1.4509e-16 
4295.50 1.5682e-16 
4297.00 1.6368e-16 
4298.50 1.5814e-16 
4300.00 1.4873e-16 
4301.50 1.3567e-16 
4303.00 1.4383e-16 
4304.50 1.5040e-16 
4306.00 1.4513e-16 
4307.50 1.3599e-16 
4309.00 1.5237e-16 
4310.50 1.5278e-16 
4312.00 1.2899e-16 
4313.50 1.7690e-16 
4315.00 1.4606e-16 
4316.50 1.4646e-16 
4318.00 1.2631e-16 
4319.50 1.3631e-16 
4321.00 1.4560e-16 
4322.50 1.6241e-16 
4324.00 1.7050e-16 
4325.50 1.6087e-16 
4327.00 1.5392e-16 
4328.50 1.2786e-16 
4330.00 1.3498e-16 
4331.50 1.7280e-16 
4333.00 1.5077e-16 
4334.50 1.4954e-16 
4336.00 1.2411e-16 
4337.50 1.3837e-16 
4339.00 1.6173e-16 
4340.50 1.3743e-16 
4342.00 1.5065e-16 
4343.50 1.5777e-16 
4345.00 1.4628e-16 
4346.50 1.1872e-16 
4348.00 7.2721e-17 
4349.50 7.4803e-17 
4351.00 1.2276e-16 
4352.50 1.4016e-16 
4354.00 1.3301e-16 
4355.50 6.6726e-17 
4357.00 1.0335e-16 
4358.50 1.2836e-16 
4360.00 1.3925e-16 
4361.50 1.6357e-16 
4363.00 1.3112e-16 
4364.50 1.5564e-16 
4366.00 1.4821e-16 
4367.50 1.4608e-16 
4369.00 1.6736e-16 
4370.50 1.4329e-16 
4372.00 1.4031e-16 
4373.50 1.7099e-16 
4375.00 1.6925e-16 
4376.50 1.5500e-16 
4378.00 1.5208e-16 
4379.50 1.5719e-16 
4381.00 1.2781e-16 
4382.50 1.5341e-16 
4384.00 1.6776e-16 
4385.50 1.7141e-16 
4387.00 1.7243e-16 
4388.50 1.6385e-16 
4390.00 1.4792e-16 
4391.50 1.5130e-16 
4393.00 1.4611e-16 
4394.50 1.5679e-16 
4396.00 1.6408e-16 
4397.50 1.6704e-16 
4399.00 1.5011e-16 
4400.50 1.3427e-16 
4402.00 1.7033e-16 
4403.50 1.4055e-16 
4405.00 1.5291e-16 
4406.50 1.5692e-16 
4408.00 1.6841e-16 
4409.50 1.7804e-16 
4411.00 1.7040e-16 
4412.50 1.4089e-16 
4414.00 1.3434e-16 
4415.50 1.4761e-16 
4417.00 1.4521e-16 
4418.50 1.3860e-16 
4420.00 1.5324e-16 
4421.50 1.3816e-16 
4423.00 1.4308e-16 
4424.50 1.3994e-16 
4426.00 1.4991e-16 
4427.50 1.5669e-16 
4429.00 1.4561e-16 
4430.50 1.5583e-16 
4432.00 1.4499e-16 
4433.50 1.4320e-16 
4435.00 1.4531e-16 
4436.50 1.5835e-16 
4438.00 1.4022e-16 
4439.50 1.3722e-16 
4441.00 1.4308e-16 
4442.50 1.5568e-16 
4444.00 1.7783e-16 
4445.50 1.5234e-16 
4447.00 1.3520e-16 
4448.50 1.6127e-16 
4450.00 1.7546e-16 
4451.50 1.3908e-16 
4453.00 1.4875e-16 
4454.50 1.3355e-16 
4456.00 1.4043e-16 
4457.50 1.4984e-16 
4459.00 1.4368e-16 
4460.50 1.4218e-16 
4462.00 1.3352e-16 
4463.50 1.1525e-16 
4465.00 9.3050e-17 
4466.50 9.8526e-17 
4468.00 1.4825e-16 
4469.50 1.5929e-16 
4471.00 1.6106e-16 
4472.50 1.3977e-16 
4474.00 1.2750e-16 
4475.50 1.4127e-16 
4477.00 1.7287e-16 
4478.50 1.6722e-16 
4480.00 1.7033e-16 
4481.50 1.6916e-16 
4483.00 1.7233e-16 
4484.50 1.6522e-16 
4486.00 1.7836e-16 
4487.50 1.6810e-16 
4489.00 1.7334e-16 
4490.50 1.8002e-16 
4492.00 1.7178e-16 
4493.50 1.7825e-16 
4495.00 1.7439e-16 
4496.50 1.6876e-16 
4498.00 1.9140e-16 
4499.50 1.8340e-16 
4501.00 1.9608e-16 
4502.50 2.0394e-16 
4504.00 1.8055e-16 
4505.50 1.7651e-16 
4507.00 1.9724e-16 
4508.50 2.0744e-16 
4510.00 2.0618e-16 
4511.50 2.0435e-16 
4513.00 2.1082e-16 
4514.50 2.1026e-16 
4516.00 1.9961e-16 
4517.50 1.8647e-16 
4519.00 1.8727e-16 
4520.50 1.9419e-16 
4522.00 2.0527e-16 
4523.50 2.0364e-16 
4525.00 2.0417e-16 
4526.50 2.1160e-16 
4528.00 1.7783e-16 
4529.50 1.9992e-16 
4531.00 2.0017e-16 
4532.50 2.0190e-16 
4534.00 2.0326e-16 
4535.50 2.1429e-16 
4537.00 2.1814e-16 
4538.50 2.2106e-16 
4540.00 2.1531e-16 
4541.50 1.8511e-16 
4543.00 9.7248e-17 
4544.50 3.9621e-17 
4546.00 3.8261e-17 
4547.50 1.2001e-16 
4549.00 1.5022e-16 
4550.50 1.0350e-16 
4552.00 6.9926e-17 
4553.50 6.7607e-17 
4555.00 1.3294e-16 
4556.50 1.9536e-16 
4558.00 1.9862e-16 
4559.50 1.9658e-16 
4561.00 1.8587e-16 
4562.50 1.7759e-16 
4564.00 1.8056e-16 
4565.50 1.7962e-16 
4567.00 1.8592e-16 
4568.50 1.9780e-16 
4570.00 1.7264e-16 
4571.50 1.7932e-16 
4573.00 1.8253e-16 
4574.50 1.6919e-16 
4576.00 1.6643e-16 
4577.50 1.7213e-16 
4579.00 1.9084e-16 
4580.50 1.7799e-16 
4582.00 1.8616e-16 
4583.50 1.9239e-16 
4585.00 1.8590e-16 
4586.50 1.7639e-16 
4588.00 1.9860e-16 
4589.50 1.6172e-16 
4591.00 1.8064e-16 
4592.50 1.6604e-16 
4594.00 1.7582e-16 
4595.50 1.7891e-16 
4597.00 1.7328e-16 
4598.50 1.7311e-16 
4600.00 1.8031e-16 
4601.50 1.6878e-16 
4603.00 1.6491e-16 
4604.50 1.6084e-16 
4606.00 1.4392e-16 
4607.50 1.6397e-16 
4609.00 1.7849e-16 
4610.50 1.7687e-16 
4612.00 1.7626e-16 
4613.50 1.6061e-16 
4615.00 1.6347e-16 
4616.50 1.6366e-16 
4618.00 1.5896e-16 
4619.50 1.5763e-16 
4621.00 1.5741e-16 
4622.50 1.6084e-16 
4624.00 1.6559e-16 
4625.50 1.5758e-16 
4627.00 1.5410e-16 
4628.50 1.5805e-16 
4630.00 1.5800e-16 
4631.50 1.3588e-16 
4633.00 1.5388e-16 
4634.50 1.5852e-16 
4636.00 1.6600e-16 
4637.50 1.4816e-16 
4639.00 1.2936e-16 
4640.50 1.4470e-16 
4642.00 1.5366e-16 
4643.50 1.4934e-16 
4645.00 1.5613e-16 
4646.50 1.5375e-16 
4648.00 1.5338e-16 
4649.50 1.4465e-16 
4651.00 1.5944e-16 
4652.50 1.5877e-16 
4654.00 1.2607e-16 
4655.50 1.3203e-16 
4657.00 1.5189e-16 
4658.50 1.4775e-16 
4660.00 1.3601e-16 
4661.50 1.4201e-16 
4663.00 1.5970e-16 
4664.50 1.3278e-16 
4666.00 1.3247e-16 
4667.50 1.6067e-16 
4669.00 1.5314e-16 
4670.50 1.4292e-16 
4672.00 1.4533e-16 
4673.50 1.5948e-16 
4675.00 1.4801e-16 
4676.50 1.3193e-16 
4678.00 1.2863e-16 
4679.50 1.3302e-16 
4681.00 1.3865e-16 
4682.50 1.3849e-16 
4684.00 1.4918e-16 
4685.50 1.3854e-16 
4687.00 1.4601e-16 
4688.50 1.5930e-16 
4690.00 1.3875e-16 
4691.50 1.0821e-16 
4693.00 9.0078e-17 
4694.50 1.1135e-16 
4696.00 1.4690e-16 
4697.50 1.3855e-16 
4699.00 1.3233e-16 
4700.50 1.2409e-16 
4702.00 1.5533e-16 
4703.50 1.4679e-16 
4705.00 1.3451e-16 
4706.50 1.4331e-16 
4708.00 1.4373e-16 
4709.50 1.3876e-16 
4711.00 1.4224e-16 
4712.50 1.4507e-16 
4714.00 1.4742e-16 
4715.50 1.4545e-16 
4717.00 1.3859e-16 
4718.50 1.3256e-16 
4720.00 1.3950e-16 
4721.50 1.3811e-16 
4723.00 1.3460e-16 
4724.50 1.4475e-16 
4726.00 1.4790e-16 
4727.50 1.4813e-16 
4729.00 1.2985e-16 
4730.50 1.2853e-16 
4732.00 1.2069e-16 
4733.50 1.3453e-16 
4735.00 1.4593e-16 
4736.50 1.2301e-16 
4738.00 1.3755e-16 
4739.50 1.4179e-16 
4741.00 1.5049e-16 
4742.50 1.3398e-16 
4744.00 1.3304e-16 
4745.50 1.3835e-16 
4747.00 1.5023e-16 
4748.50 1.3891e-16 
4750.00 1.3436e-16 
4751.50 1.4441e-16 
4753.00 1.4950e-16 
4754.50 1.4389e-16 
4756.00 1.3746e-16 
4757.50 1.4648e-16 
4759.00 1.3601e-16 
4760.50 1.3211e-16 
4762.00 1.3391e-16 
4763.50 1.3397e-16 
4765.00 1.3560e-16 
4766.50 1.3097e-16 
4768.00 1.3181e-16 
4769.50 1.3285e-16 
4771.00 1.4795e-16 
4772.50 1.3584e-16 
4774.00 1.2538e-16 
4775.50 1.3350e-16 
4777.00 1.3666e-16 
4778.50 1.2797e-16 
4780.00 1.3724e-16 
4781.50 1.4868e-16 
4783.00 1.3639e-16 
4784.50 1.4187e-16 
4786.00 1.2748e-16 
4787.50 1.4601e-16 
4789.00 1.4382e-16 
4790.50 1.2608e-16 
4792.00 1.4526e-16 
4793.50 1.5256e-16 
4795.00 1.3783e-16 
4796.50 1.4186e-16 
4798.00 1.3920e-16 
4799.50 1.4258e-16 
4801.00 1.4817e-16 
4802.50 1.2997e-16 
4804.00 1.2179e-16 
4805.50 1.2591e-16 
4807.00 1.2890e-16 
4808.50 1.4706e-16 
4810.00 1.3376e-16 
4811.50 1.4222e-16 
4813.00 1.4383e-16 
4814.50 1.4346e-16 
4816.00 1.3381e-16 
4817.50 1.4772e-16 
4819.00 1.5485e-16 
4820.50 1.3747e-16 
4822.00 1.2014e-16 
4823.50 1.3160e-16 
4825.00 1.5017e-16 
4826.50 1.2877e-16 
4828.00 1.2805e-16 
4829.50 1.3626e-16 
4831.00 1.3261e-16 
4832.50 1.2280e-16 
4834.00 1.1965e-16 
4835.50 1.4360e-16 
4837.00 1.4765e-16 
4838.50 1.4195e-16 
4840.00 1.3420e-16 
4841.50 1.3524e-16 
4843.00 1.3139e-16 
4844.50 1.3451e-16 
4846.00 1.2940e-16 
4847.50 1.4675e-16 
4849.00 1.3415e-16 
4850.50 1.2676e-16 
4852.00 1.2727e-16 
4853.50 1.3248e-16 
4855.00 1.3012e-16 
4856.50 1.3392e-16 
4858.00 1.3279e-16 
4859.50 1.2955e-16 
4861.00 1.3590e-16 
4862.50 1.4929e-16 
4864.00 1.4535e-16 
4865.50 1.4272e-16 
4867.00 1.3224e-16 
4868.50 1.1974e-16 
4870.00 1.2059e-16 
4871.50 1.2512e-16 
4873.00 1.1591e-16 
4874.50 1.3520e-16 
4876.00 1.3286e-16 
4877.50 1.1821e-16 
4879.00 1.1887e-16 
4880.50 1.1730e-16 
4882.00 1.3789e-16 
4883.50 1.3452e-16 
4885.00 1.1629e-16 
4886.50 1.2903e-16 
4888.00 1.3630e-16 
4889.50 1.3427e-16 
4891.00 1.1460e-16 
4892.50 1.4710e-16 
4894.00 1.4007e-16 
4895.50 1.2856e-16 
4897.00 1.3765e-16 
4898.50 1.2070e-16 
4900.00 1.1101e-16 
4901.50 1.2859e-16 
4903.00 1.3146e-16 
4904.50 1.2493e-16 
4906.00 1.2959e-16 
4907.50 1.2891e-16 
4909.00 1.2401e-16 
4910.50 1.2717e-16 
4912.00 1.3971e-16 
4913.50 1.2360e-16 
4915.00 1.2537e-16 
4916.50 1.2763e-16 
4918.00 1.2501e-16 
4919.50 1.4229e-16 
4921.00 1.2064e-16 
4922.50 1.2888e-16 
4924.00 1.2638e-16 
4925.50 1.3204e-16 
4927.00 1.1464e-16 
4928.50 1.2217e-16 
4930.00 1.1388e-16 
4931.50 1.2216e-16 
4933.00 1.1600e-16 
4934.50 1.2482e-16 
4936.00 1.2190e-16 
4937.50 1.2575e-16 
4939.00 1.1809e-16 
4940.50 1.1898e-16 
4942.00 1.2642e-16 
4943.50 1.2384e-16 
4945.00 1.2446e-16 
4946.50 1.2892e-16 
4948.00 1.2814e-16 
4949.50 1.4797e-16 
4951.00 1.4602e-16 
4952.50 1.4485e-16 
4954.00 1.3231e-16 
4955.50 1.3027e-16 
4957.00 1.2092e-16 
4958.50 1.1048e-16 
4960.00 1.0757e-16 
4961.50 1.3491e-16 
4963.00 1.3231e-16 
4964.50 1.2294e-16 
4966.00 1.2254e-16 
4967.50 1.2278e-16 
4969.00 1.2445e-16 
4970.50 1.2869e-16 
4972.00 1.2960e-16 
4973.50 1.2660e-16 
4975.00 1.2806e-16 
4976.50 1.0654e-16 
4978.00 1.0690e-16 
4979.50 1.1671e-16 
4981.00 1.2774e-16 
4982.50 1.2327e-16 
4984.00 1.2390e-16 
4985.50 1.2683e-16 
4987.00 1.0682e-16 
4988.50 1.1553e-16 
4990.00 1.1264e-16 
4991.50 1.2998e-16 
4993.00 1.2373e-16 
4994.50 1.2012e-16 
4996.00 1.2787e-16 
4997.50 1.1655e-16 
4999.00 1.3716e-16 
5000.50 1.2779e-16 
5002.00 1.0705e-16 
5003.50 9.8643e-17 
5005.00 1.2634e-16 
5006.50 1.2841e-16 
5008.00 1.2025e-16 
5009.50 1.1848e-16 
5011.00 1.2119e-16 
5012.50 1.2991e-16 
5014.00 1.2821e-16 
5015.50 1.2739e-16 
5017.00 1.1612e-16 
5018.50 1.1673e-16 
5020.00 1.0626e-16 
5021.50 1.1908e-16 
5023.00 1.2184e-16 
5024.50 1.2795e-16 
5026.00 1.1808e-16 
5027.50 1.1038e-16 
5029.00 1.3039e-16 
5030.50 1.2685e-16 
5032.00 1.2915e-16 
5033.50 1.2844e-16 
5035.00 1.2531e-16 
5036.50 1.2698e-16 
5038.00 1.2222e-16 
5039.50 1.2955e-16 
5041.00 1.2956e-16 
5042.50 1.2447e-16 
5044.00 1.2154e-16 
5045.50 1.1294e-16 
5047.00 1.2266e-16 
5048.50 1.2280e-16 
5050.00 1.2272e-16 
5051.50 1.0927e-16 
5053.00 1.2025e-16 
5054.50 1.3167e-16 
5056.00 1.4590e-16 
5057.50 1.2960e-16 
5059.00 1.3593e-16 
5060.50 1.1598e-16 
5062.00 1.1445e-16 
5063.50 1.3331e-16 
5065.00 1.2919e-16 
5066.50 1.3038e-16 
5068.00 1.2035e-16 
5069.50 1.3045e-16 
5071.00 1.0976e-16 
5072.50 1.1668e-16 
5074.00 1.3053e-16 
5075.50 1.3317e-16 
5077.00 1.3108e-16 
5078.50 1.2258e-16 
5080.00 1.1623e-16 
5081.50 1.4292e-16 
5083.00 1.2620e-16 
5084.50 1.2071e-16 
5086.00 1.3054e-16 
5087.50 1.1624e-16 
5089.00 1.2781e-16 
5090.50 1.2655e-16 
5092.00 1.3547e-16 
5093.50 1.0642e-16 
5095.00 1.2735e-16 
5096.50 1.2668e-16 
5098.00 1.2162e-16 
5099.50 1.3019e-16 
5101.00 1.2066e-16 
5102.50 1.1916e-16 
5104.00 1.2300e-16 
5105.50 1.1230e-16 
5107.00 1.1964e-16 
5108.50 1.2983e-16 
5110.00 1.1653e-16 
5111.50 1.1670e-16 
5113.00 1.1083e-16 
5114.50 1.2067e-16 
5116.00 1.2184e-16 
5117.50 1.1442e-16 
5119.00 1.2521e-16 
5120.50 1.4245e-16 
5122.00 1.3425e-16 
5123.50 1.2002e-16 
5125.00 1.2330e-16 
5126.50 1.3323e-16 
5128.00 1.2857e-16 
5129.50 1.2945e-16 
5131.00 1.2598e-16 
5132.50 1.2296e-16 
5134.00 1.1449e-16 
5135.50 1.1318e-16 
5137.00 1.3014e-16 
5138.50 1.2716e-16 
5140.00 1.1990e-16 
5141.50 1.3703e-16 
5143.00 1.1375e-16 
5144.50 1.2408e-16 
5146.00 1.1978e-16 
5147.50 1.0900e-16 
5149.00 1.1623e-16 
5150.50 1.2878e-16 
5152.00 1.1591e-16 
5153.50 1.1575e-16 
5155.00 1.2182e-16 
5156.50 1.2841e-16 
5158.00 1.2866e-16 
5159.50 1.1729e-16 
5161.00 1.1604e-16 
5162.50 1.2237e-16 
5164.00 1.1482e-16 
5165.50 1.1959e-16 
5167.00 1.1272e-16 
5168.50 1.1948e-16 
5170.00 1.3205e-16 
5171.50 1.1184e-16 
5173.00 1.1031e-16 
5174.50 1.2925e-16 
5176.00 1.1288e-16 
5177.50 1.1708e-16 
5179.00 1.1809e-16 
5180.50 1.1385e-16 
5182.00 1.2561e-16 
5183.50 1.1025e-16 
5185.00 1.1000e-16 
5186.50 1.3184e-16 
5188.00 1.1275e-16 
5189.50 1.1812e-16 
5191.00 1.1979e-16 
5192.50 1.1707e-16 
5194.00 1.2408e-16 
5195.50 1.2955e-16 
5197.00 1.2166e-16 
5198.50 1.2285e-16 
5200.00 1.1277e-16 
5201.50 1.1436e-16 
5203.00 1.2087e-16 
5204.50 1.4155e-16 
5206.00 1.2389e-16 
5207.50 1.2001e-16 
5209.00 1.1487e-16 
5210.50 1.0545e-16 
5212.00 1.1629e-16 
5213.50 1.2613e-16 
5215.00 1.1932e-16 
5216.50 1.1756e-16 
5218.00 1.1827e-16 
5219.50 1.1734e-16 
5221.00 1.1152e-16 
5222.50 1.1952e-16 
5224.00 1.1310e-16 
5225.50 1.1626e-16 
5227.00 1.0829e-16 
5228.50 1.1898e-16 
5230.00 1.2155e-16 
5231.50 1.0259e-16 
5233.00 1.0732e-16 
5234.50 1.1321e-16 
5236.00 1.0446e-16 
5237.50 1.1623e-16 
5239.00 1.0789e-16 
5240.50 1.0014e-16 
5242.00 1.1583e-16 
5243.50 1.1953e-16 
5245.00 1.1721e-16 
5246.50 1.1274e-16 
5248.00 1.1123e-16 
5249.50 9.1379e-17 
5251.00 1.0584e-16 
5252.50 1.0773e-16 
5254.00 1.0698e-16 
5255.50 1.1587e-16 
5257.00 1.1469e-16 
5258.50 1.0273e-16 
5260.00 1.1236e-16 
5261.50 1.0790e-16 
5263.00 1.1902e-16 
5264.50 1.2373e-16 
5266.00 1.2716e-16 
5267.50 1.1744e-16 
5269.00 1.2391e-16 
5270.50 1.2107e-16 
5272.00 1.2539e-16 
5273.50 1.1053e-16 
5275.00 1.0640e-16 
5276.50 1.1347e-16 
5278.00 1.2106e-16 
5279.50 1.0021e-16 
5281.00 1.1438e-16 
5282.50 1.1626e-16 
5284.00 1.1109e-16 
5285.50 1.1542e-16 
5287.00 1.1199e-16 
5288.50 1.2354e-16 
5290.00 1.1574e-16 
5291.50 1.0559e-16 
5293.00 1.1930e-16 
5294.50 1.1563e-16 
5296.00 1.0359e-16 
5297.50 1.1694e-16 
5299.00 1.1555e-16 
5300.50 1.1534e-16 
5302.00 1.0645e-16 
5303.50 1.1079e-16 
5305.00 1.0899e-16 
5306.50 1.0634e-16 
5308.00 1.1964e-16 
5309.50 1.2170e-16 
5311.00 1.1279e-16 
5312.50 1.1480e-16 
5314.00 1.0916e-16 
5315.50 1.0839e-16 
5317.00 1.1845e-16 
5318.50 1.1282e-16 
5320.00 1.2045e-16 
5321.50 1.2155e-16 
5323.00 1.2347e-16 
5324.50 1.2160e-16 
5326.00 1.2535e-16 
5327.50 1.0949e-16 
5329.00 1.1141e-16 
5330.50 1.1459e-16 
5332.00 1.1544e-16 
5333.50 1.0458e-16 
5335.00 1.1063e-16 
5336.50 1.1114e-16 
5338.00 1.0571e-16 
5339.50 1.1312e-16 
5341.00 1.1829e-16 
5342.50 9.9955e-17 
5344.00 1.1609e-16 
5345.50 1.0158e-16 
5347.00 1.0659e-16 
5348.50 1.0348e-16 
5350.00 1.0471e-16 
5351.50 1.2142e-16 
5353.00 1.1532e-16 
5354.50 1.3046e-16 
5356.00 1.1664e-16 
5357.50 1.0464e-16 
5359.00 1.0076e-16 
5360.50 1.0099e-16 
5362.00 1.0325e-16 
5363.50 1.1274e-16 
5365.00 1.1166e-16 
5366.50 1.1754e-16 
5368.00 1.1110e-16 
5369.50 1.0578e-16 
5371.00 1.0594e-16 
5372.50 1.1458e-16 
5374.00 1.1299e-16 
5375.50 1.1310e-16 
5377.00 1.2121e-16 
5378.50 1.1347e-16 
5380.00 1.2200e-16 
5381.50 1.3234e-16 
5383.00 1.2161e-16 
5384.50 1.1134e-16 
5386.00 1.1811e-16 
5387.50 1.3034e-16 
5389.00 1.1812e-16 
5390.50 1.2513e-16 
5392.00 1.3087e-16 
5393.50 1.1524e-16 
5395.00 1.1019e-16 
5396.50 1.1334e-16 
5398.00 1.1121e-16 
5399.50 1.1126e-16 
5401.00 1.1221e-16 
5402.50 1.1818e-16 
5404.00 1.0043e-16 
5405.50 1.1167e-16 
5407.00 1.2289e-16 
5408.50 1.1350e-16 
5410.00 1.1594e-16 
5411.50 1.2574e-16 
5413.00 1.2358e-16 
5414.50 1.3080e-16 
5416.00 1.2034e-16 
5417.50 1.2639e-16 
5419.00 1.1784e-16 
5420.50 1.2247e-16 
5422.00 1.1703e-16 
5423.50 1.2060e-16 
5425.00 1.0635e-16 
5426.50 1.2716e-16 
5428.00 1.1928e-16 
5429.50 1.1018e-16 
5431.00 1.1939e-16 
5432.50 1.2733e-16 
5434.00 1.0910e-16 
5435.50 1.0844e-16 
5437.00 1.1992e-16 
5438.50 1.1920e-16 
5440.00 1.1099e-16 
5441.50 1.1657e-16 
5443.00 1.1366e-16 
5444.50 1.2501e-16 
5446.00 1.1597e-16 
5447.50 1.0714e-16 
5449.00 1.2331e-16 
5450.50 1.1888e-16 
5452.00 1.2811e-16 
5453.50 1.1080e-16 
5455.00 1.2724e-16 
5456.50 1.0878e-16 
5458.00 1.1139e-16 
5459.50 1.1546e-16 
5461.00 1.2775e-16 
5462.50 1.0240e-16 
5464.00 1.1914e-16 
5465.50 1.1765e-16 
5467.00 1.2053e-16 
5468.50 1.2190e-16 
5470.00 1.1508e-16 
5471.50 1.2759e-16 
5473.00 1.2495e-16 
5474.50 1.1972e-16 
5476.00 9.7468e-17 
5477.50 1.0649e-16 
5479.00 1.1799e-16 
5480.50 1.1766e-16 
5482.00 1.1227e-16 
5483.50 1.1556e-16 
5485.00 1.2385e-16 
5486.50 1.3823e-16 
5488.00 1.4613e-16 
5489.50 1.4125e-16 
5491.00 1.3023e-16 
5492.50 1.2776e-16 
5494.00 1.1965e-16 
5495.50 1.1157e-16 
5497.00 1.1783e-16 
5498.50 1.1361e-16 
5500.00 1.2330e-16 
5501.50 1.3327e-16 
5503.00 1.2205e-16 
5504.50 1.1750e-16 
5506.00 1.1044e-16 
5507.50 1.2612e-16 
5509.00 1.2710e-16 
5510.50 1.2918e-16 
5512.00 1.2473e-16 
5513.50 1.1619e-16 
5515.00 1.1709e-16 
5516.50 1.2678e-16 
5518.00 1.2759e-16 
5519.50 1.2378e-16 
5521.00 1.2760e-16 
5522.50 1.1940e-16 
5524.00 1.2936e-16 
5525.50 1.2401e-16 
5527.00 1.2326e-16 
5528.50 1.1011e-16 
5530.00 1.4370e-16 
5531.50 1.3942e-16 
5533.00 1.3272e-16 
5534.50 1.3007e-16 
5536.00 1.3146e-16 
5537.50 1.2750e-16 
5539.00 1.2247e-16 
5540.50 1.2877e-16 
5542.00 1.1669e-16 
5543.50 1.2010e-16 
5545.00 1.2498e-16 
5546.50 1.3236e-16 
5548.00 1.2443e-16 
5549.50 1.1994e-16 
5551.00 1.0963e-16 
5552.50 1.2670e-16 
5554.00 1.4279e-16 
5555.50 1.2175e-16 
5557.00 1.2332e-16 
5558.50 1.3007e-16 
5560.00 1.3678e-16 
5561.50 1.1886e-16 
5563.00 1.2587e-16 
5564.50 1.2100e-16 
5566.00 1.3800e-16 
5567.50 1.4050e-16 
5569.00 1.3033e-16 
5570.50 1.3058e-16 
5572.00 1.4730e-16 
5573.50 1.3685e-16 
5575.00 1.5286e-16 
5576.50 1.8811e-16 
5578.00 6.2949e-17 
5579.50 4.7337e-17 
5581.00 1.3612e-16 
5582.50 1.2823e-16 
5584.00 1.2340e-16 
5585.50 1.2841e-16 
5587.00 1.3781e-16 
5588.50 1.2376e-16 
5590.00 1.2380e-16 
5591.50 1.3304e-16 
5593.00 1.2618e-16 
5594.50 1.1788e-16 
5596.00 1.3035e-16 
5597.50 1.4517e-16 
5599.00 1.3776e-16 
5600.50 1.3503e-16 
5602.00 1.3483e-16 
5603.50 1.2381e-16 
5605.00 1.3469e-16 
5606.50 1.4232e-16 
5608.00 1.3186e-16 
5609.50 1.2184e-16 
5611.00 1.2983e-16 
5612.50 1.2355e-16 
5614.00 1.1624e-16 
5615.50 1.0891e-16 
5617.00 1.4377e-16 
5618.50 1.4144e-16 
5620.00 1.1561e-16 
5621.50 1.1652e-16 
5623.00 1.2726e-16 
5624.50 1.4062e-16 
5626.00 1.0534e-16 
5627.50 1.2476e-16 
5629.00 1.1087e-16 
5630.50 1.2011e-16 
5632.00 1.2286e-16 
5633.50 1.2590e-16 
5635.00 1.2512e-16 
5636.50 1.3368e-16 
5638.00 1.2631e-16 
5639.50 1.1109e-16 
5641.00 1.1093e-16 
5642.50 1.2097e-16 
5644.00 1.1611e-16 
5645.50 1.1786e-16 
5647.00 1.4192e-16 
5648.50 1.1461e-16 
5650.00 1.1783e-16 
5651.50 1.1998e-16 
5653.00 1.2619e-16 
5654.50 1.2381e-16 
5656.00 1.3814e-16 
5657.50 1.2835e-16 
5659.00 1.1729e-16 
5660.50 1.2233e-16 
5662.00 1.2131e-16 
5663.50 1.2498e-16 
5665.00 1.0978e-16 
5666.50 1.2205e-16 
5668.00 1.2495e-16 
5669.50 1.1645e-16 
5671.00 1.0748e-16 
5672.50 1.0166e-16 
5674.00 1.0630e-16 
5675.50 1.0493e-16 
5677.00 1.1764e-16 
5678.50 1.1009e-16 
5680.00 1.2524e-16 
5681.50 1.1792e-16 
5683.00 1.1362e-16 
5684.50 1.2016e-16 
5686.00 1.1056e-16 
5687.50 1.0697e-16 
5689.00 9.7775e-17 
5690.50 9.3882e-17 
5692.00 1.0025e-16 
5693.50 1.1559e-16 
5695.00 1.0836e-16 
5696.50 1.2599e-16 
5698.00 1.2236e-16 
5699.50 1.1149e-16 
5701.00 1.1771e-16 
5702.50 1.1179e-16 
5704.00 1.1172e-16 
5705.50 1.2389e-16 
5707.00 1.0712e-16 
5708.50 1.2464e-16 
5710.00 1.2328e-16 
5711.50 1.2068e-16 
5713.00 1.1492e-16 
5714.50 9.7987e-17 
5716.00 9.6453e-17 
5717.50 1.2629e-16 
5719.00 1.1463e-16 
5720.50 1.1280e-16 
5722.00 1.0945e-16 
5723.50 1.0830e-16 
5725.00 1.0815e-16 
5726.50 1.2512e-16 
5728.00 9.7366e-17 
5729.50 1.0155e-16 
5731.00 1.0931e-16 
5732.50 1.1758e-16 
5734.00 1.1202e-16 
5735.50 1.2053e-16 
5737.00 1.2062e-16 
5738.50 1.0978e-16 
5740.00 1.0303e-16 
5741.50 1.1385e-16 
5743.00 1.2038e-16 
5744.50 1.1890e-16 
5746.00 1.1444e-16 
5747.50 1.1229e-16 
5749.00 1.1649e-16 
5750.50 1.0682e-16 
5752.00 1.1460e-16 
5753.50 9.7890e-17 
5755.00 1.0106e-16 
5756.50 1.0897e-16 
5758.00 1.1436e-16 
5759.50 1.1314e-16 
5761.00 1.0936e-16 
5762.50 1.0663e-16 
5764.00 1.1110e-16 
5765.50 9.4898e-17 
5767.00 1.0410e-16 
5768.50 1.1600e-16 
5770.00 1.1643e-16 
5771.50 1.0861e-16 
5773.00 1.0308e-16 
5774.50 1.0037e-16 
5776.00 1.0497e-16 
5777.50 1.0580e-16 
5779.00 1.0467e-16 
5780.50 1.0408e-16 
5782.00 1.1907e-16 
5783.50 1.1954e-16 
5785.00 1.0915e-16 
5786.50 1.1240e-16 
5788.00 1.0338e-16 
5789.50 1.0177e-16 
5791.00 9.7983e-17 
5792.50 9.5717e-17 
5794.00 1.0337e-16 
5795.50 1.1059e-16 
5797.00 1.0716e-16 
5798.50 9.4325e-17 
5800.00 1.1102e-16 
5801.50 9.9247e-17 
5803.00 1.0745e-16 
5804.50 1.2531e-16 
5806.00 1.2045e-16 
5807.50 9.2935e-17 
5809.00 1.2313e-16 
5810.50 9.1154e-17 
5812.00 1.2140e-16 
5813.50 1.3379e-16 
5815.00 1.0925e-16 
5816.50 9.6167e-17 
5818.00 1.0950e-16 
5819.50 1.1457e-16 
5821.00 1.1121e-16 
5822.50 1.0458e-16 
5824.00 1.0020e-16 
5825.50 9.7852e-17 
5827.00 1.0801e-16 
5828.50 9.1279e-17 
5830.00 8.8173e-17 
5831.50 1.1200e-16 
5833.00 1.0524e-16 
5834.50 1.0873e-16 
5836.00 1.1911e-16 
5837.50 1.0599e-16 
5839.00 1.0531e-16 
5840.50 1.0079e-16 
5842.00 1.0842e-16 
5843.50 1.1883e-16 
5845.00 1.2145e-16 
5846.50 1.1317e-16 
5848.00 1.0560e-16 
5849.50 1.0655e-16 
5851.00 1.0879e-16 
5852.50 1.0964e-16 
5854.00 9.8494e-17 
5855.50 8.6784e-17 
5857.00 8.6766e-17 
5858.50 9.0325e-17 
5860.00 9.9375e-17 
5861.50 1.2099e-16 
5863.00 1.1858e-16 
5864.50 1.0325e-16 
5866.00 1.1510e-16 
5867.50 1.1979e-16 
5869.00 1.1803e-16 
5870.50 1.0396e-16 
5872.00 8.8369e-17 
5873.50 1.0992e-16 
5875.00 1.2903e-16 
5876.50 1.1454e-16 
5878.00 1.0764e-16 
5879.50 1.0180e-16 
5881.00 9.8535e-17 
5882.50 1.0123e-16 
5884.00 9.7239e-17 
5885.50 9.7690e-17 
5887.00 1.1033e-16 
5888.50 1.0336e-16 
5890.00 8.4613e-17 
5891.50 9.4685e-17 
5893.00 1.0809e-16 
5894.50 9.5784e-17 
5896.00 8.8518e-17 
5897.50 1.0207e-16 
5899.00 1.2154e-16 
5900.50 1.1488e-16 
5902.00 1.0221e-16 
5903.50 1.0755e-16 
5905.00 1.1574e-16 
5906.50 1.0690e-16 
5908.00 9.9993e-17 
5909.50 9.6908e-17 
5911.00 9.6136e-17 
5912.50 9.7395e-17 
5914.00 9.3936e-17 
5915.50 9.7008e-17 
5917.00 1.1039e-16 
5918.50 1.0208e-16 
5920.00 8.8743e-17 
5921.50 1.0216e-16 
5923.00 1.0353e-16 
5924.50 1.0823e-16 
5926.00 1.0693e-16 
5927.50 1.0101e-16 
5929.00 1.0781e-16 
5930.50 9.8981e-17 
5932.00 9.8934e-17 
5933.50 9.8540e-17 
5935.00 1.0044e-16 
5936.50 9.8253e-17 
5938.00 1.0560e-16 
5939.50 1.1134e-16 
5941.00 9.2700e-17 
5942.50 8.7236e-17 
5944.00 1.0493e-16 
5945.50 9.2962e-17 
5947.00 1.0220e-16 
5948.50 8.7441e-17 
5950.00 9.4440e-17 
5951.50 9.7286e-17 
5953.00 1.0038e-16 
5954.50 8.8835e-17 
5956.00 9.1067e-17 
5957.50 1.0337e-16 
5959.00 1.0943e-16 
5960.50 1.1116e-16 
5962.00 7.4509e-17 
5963.50 1.0485e-16 
5965.00 1.0783e-16 
5966.50 1.0419e-16 
5968.00 1.0323e-16 
5969.50 9.9258e-17 
5971.00 9.9843e-17 
5972.50 9.9701e-17 
5974.00 9.3736e-17 
5975.50 9.0666e-17 
5977.00 1.0196e-16 
5978.50 1.0979e-16 
5980.00 1.1812e-16 
5981.50 1.1559e-16 
5983.00 9.3156e-17 
5984.50 1.0265e-16 
5986.00 8.9316e-17 
5987.50 8.4991e-17 
5989.00 9.7728e-17 
5990.50 1.0838e-16 
5992.00 9.7780e-17 
5993.50 9.8834e-17 
5995.00 1.0898e-16 
5996.50 9.2737e-17 
5998.00 1.1108e-16 
5999.50 9.9614e-17 
6001.00 9.5672e-17 
6002.50 9.4242e-17 
6004.00 1.0027e-16 
6005.50 9.3265e-17 
6007.00 8.7980e-17 
6008.50 9.0414e-17 
6010.00 1.0729e-16 
6011.50 1.0054e-16 
6013.00 9.4735e-17 
6014.50 1.1508e-16 
6016.00 1.0760e-16 
6017.50 1.0557e-16 
6019.00 1.2364e-16 
6020.50 1.2368e-16 
6022.00 1.0953e-16 
6023.50 9.9358e-17 
6025.00 1.0080e-16 
6026.50 9.3990e-17 
6028.00 9.6933e-17 
6029.50 1.0240e-16 
6031.00 8.1546e-17 
6032.50 1.0369e-16 
6034.00 1.0752e-16 
6035.50 9.8879e-17 
6037.00 1.0682e-16 
6038.50 1.0341e-16 
6040.00 1.0195e-16 
6041.50 1.0403e-16 
6043.00 1.0259e-16 
6044.50 1.0574e-16 
6046.00 1.0393e-16 
6047.50 1.1167e-16 
6049.00 1.0844e-16 
6050.50 9.6619e-17 
6052.00 1.0165e-16 
6053.50 1.0807e-16 
6055.00 1.0239e-16 
6056.50 1.0654e-16 
6058.00 1.0719e-16 
6059.50 1.0788e-16 
6061.00 1.0659e-16 
6062.50 1.0643e-16 
6064.00 1.0651e-16 
6065.50 9.9919e-17 
6067.00 1.1144e-16 
6068.50 1.0247e-16 
6070.00 1.0567e-16 
6071.50 1.1031e-16 
6073.00 1.0605e-16 
6074.50 1.0849e-16 
6076.00 1.0912e-16 
6077.50 1.0179e-16 
6079.00 9.0982e-17 
6080.50 1.0256e-16 
6082.00 9.8875e-17 
6083.50 1.0014e-16 
6085.00 1.0710e-16 
6086.50 1.0762e-16 
6088.00 1.1052e-16 
6089.50 1.0804e-16 
6091.00 9.7005e-17 
6092.50 1.0174e-16 
6094.00 1.1118e-16 
6095.50 9.6430e-17 
6097.00 1.0344e-16 
6098.50 9.8751e-17 
6100.00 1.0401e-16 
6101.50 1.0720e-16 
6103.00 9.9705e-17 
6104.50 9.9738e-17 
6106.00 1.0583e-16 
6107.50 1.0196e-16 
6109.00 9.7814e-17 
6110.50 9.8112e-17 
6112.00 1.0405e-16 
6113.50 1.1804e-16 
6115.00 1.0174e-16 
6116.50 9.4131e-17 
6118.00 1.0107e-16 
6119.50 1.0772e-16 
6121.00 1.0339e-16 
6122.50 9.8089e-17 
6124.00 1.0428e-16 
6125.50 1.0861e-16 
6127.00 1.1126e-16 
6128.50 9.6978e-17 
6130.00 9.6112e-17 
6131.50 1.0617e-16 
6133.00 1.1046e-16 
6134.50 1.0633e-16 
6136.00 1.0783e-16 
6137.50 1.1391e-16 
6139.00 9.9566e-17 
6140.50 1.0972e-16 
6142.00 1.1203e-16 
6143.50 1.0049e-16 
6145.00 1.0355e-16 
6146.50 1.0526e-16 
6148.00 1.0142e-16 
6149.50 9.6996e-17 
6151.00 1.0131e-16 
6152.50 1.0690e-16 
6154.00 9.6231e-17 
6155.50 9.4541e-17 
6157.00 1.0413e-16 
6158.50 9.7831e-17 
6160.00 9.3647e-17 
6161.50 9.6298e-17 
6163.00 9.5067e-17 
6164.50 9.4339e-17 
6166.00 9.8940e-17 
6167.50 1.0431e-16 
6169.00 1.0604e-16 
6170.50 1.0620e-16 
6172.00 9.1466e-17 
6173.50 9.2741e-17 
6175.00 9.7730e-17 
6176.50 1.1111e-16 
6178.00 1.0374e-16 
6179.50 1.0099e-16 
6181.00 1.0325e-16 
6182.50 1.0581e-16 
6184.00 9.3714e-17 
6185.50 8.8569e-17 
6187.00 9.4903e-17 
6188.50 1.0263e-16 
6190.00 1.0878e-16 
6191.50 9.2243e-17 
6193.00 8.4682e-17 
6194.50 8.8469e-17 
6196.00 9.8437e-17 
6197.50 1.0125e-16 
6199.00 9.0707e-17 
6200.50 8.8823e-17 
6202.00 1.0134e-16 
6203.50 9.4953e-17 
6205.00 8.9397e-17 
6206.50 1.0198e-16 
6208.00 1.0203e-16 
6209.50 9.7631e-17 
6211.00 1.0561e-16 
6212.50 9.8148e-17 
6214.00 9.1652e-17 
6215.50 9.6918e-17 
6217.00 8.5537e-17 
6218.50 8.9431e-17 
6220.00 1.0630e-16 
6221.50 1.0115e-16 
6223.00 9.1732e-17 
6224.50 1.0079e-16 
6226.00 1.0319e-16 
6227.50 1.0139e-16 
6229.00 1.0137e-16 
6230.50 9.2986e-17 
6232.00 8.8945e-17 
6233.50 9.8176e-17 
6235.00 8.5166e-17 
6236.50 8.9343e-17 
6238.00 1.0218e-16 
6239.50 1.0655e-16 
6241.00 9.1277e-17 
6242.50 8.1807e-17 
6244.00 9.3639e-17 
6245.50 1.0080e-16 
6247.00 9.6887e-17 
6248.50 9.4935e-17 
6250.00 9.3603e-17 
6251.50 9.5188e-17 
6253.00 8.5274e-17 
6254.50 8.9918e-17 
6256.00 9.8856e-17 
6257.50 9.4466e-17 
6259.00 8.0178e-17 
6260.50 8.7120e-17 
6262.00 9.6443e-17 
6263.50 9.0896e-17 
6265.00 8.4252e-17 
6266.50 8.8894e-17 
6268.00 9.3250e-17 
6269.50 9.4272e-17 
6271.00 1.0022e-16 
6272.50 9.1906e-17 
6274.00 8.9728e-17 
6275.50 9.3314e-17 
6277.00 9.5374e-17 
6278.50 8.8490e-17 
6280.00 8.6029e-17 
6281.50 9.9371e-17 
6283.00 1.0620e-16 
6284.50 1.0239e-16 
6286.00 1.0200e-16 
6287.50 8.5380e-17 
6289.00 8.4497e-17 
6290.50 9.6217e-17 
6292.00 8.8710e-17 
6293.50 9.9646e-17 
6295.00 9.1714e-17 
6296.50 9.3857e-17 
6298.00 9.5238e-17 
6299.50 9.6086e-17 
6301.00 7.3885e-17 
6302.50 1.0758e-16 
6304.00 9.8596e-17 
6305.50 8.0695e-17 
6307.00 9.3665e-17 
6308.50 8.9000e-17 
6310.00 9.2765e-17 
6311.50 9.1364e-17 
6313.00 9.6677e-17 
6314.50 9.3039e-17 
6316.00 9.1268e-17 
6317.50 8.9152e-17 
6319.00 8.9840e-17 
6320.50 9.3836e-17 
6322.00 8.6807e-17 
6323.50 9.0984e-17 
6325.00 9.1422e-17 
6326.50 8.1868e-17 
6328.00 8.5554e-17 
6329.50 9.4516e-17 
6331.00 9.7465e-17 
6332.50 1.0857e-16 
6334.00 8.4710e-17 
6335.50 8.1700e-17 
6337.00 9.1765e-17 
6338.50 9.4196e-17 
6340.00 9.0267e-17 
6341.50 9.8940e-17 
6343.00 9.2050e-17 
6344.50 8.4887e-17 
6346.00 8.9376e-17 
6347.50 9.4925e-17 
6349.00 9.3400e-17 
6350.50 8.5582e-17 
6352.00 8.8306e-17 
6353.50 1.0058e-16 
6355.00 9.5289e-17 
6356.50 8.4964e-17 
6358.00 7.4656e-17 
6359.50 7.7763e-17 
6361.00 9.2365e-17 
6362.50 9.1514e-17 
6364.00 8.5648e-17 
6365.50 9.3837e-17 
6367.00 1.0363e-16 
6368.50 8.9602e-17 
6370.00 9.0440e-17 
6371.50 9.5246e-17 
6373.00 9.2770e-17 
6374.50 8.7445e-17 
6376.00 8.3411e-17 
6377.50 9.3161e-17 
6379.00 9.2131e-17 
6380.50 8.5684e-17 
6382.00 9.3281e-17 
6383.50 9.3976e-17 
6385.00 9.1216e-17 
6386.50 9.3418e-17 
6388.00 9.7359e-17 
6389.50 9.1885e-17 
6391.00 8.0561e-17 
6392.50 7.8482e-17 
6394.00 8.6762e-17 
6395.50 8.9987e-17 
6397.00 8.4653e-17 
6398.50 8.4551e-17 
6400.00 8.6642e-17 
6401.50 9.0586e-17 
6403.00 8.9593e-17 
6404.50 9.7636e-17 
6406.00 8.8571e-17 
6407.50 8.8247e-17 
6409.00 8.8076e-17 
6410.50 8.7671e-17 
6412.00 9.7139e-17 
6413.50 9.3621e-17 
6415.00 9.2940e-17 
6416.50 8.5168e-17 
6418.00 7.7521e-17 
6419.50 8.3783e-17 
6421.00 9.0466e-17 
6422.50 8.6479e-17 
6424.00 8.1569e-17 
6425.50 8.8829e-17 
6427.00 8.7466e-17 
6428.50 9.6851e-17 
6430.00 8.8596e-17 
6431.50 8.5185e-17 
6433.00 8.4796e-17 
6434.50 8.1992e-17 
6436.00 8.6860e-17 
6437.50 8.6694e-17 
6439.00 9.3599e-17 
6440.50 9.2284e-17 
6442.00 9.0155e-17 
6443.50 9.2030e-17 
6445.00 8.8029e-17 
6446.50 8.7001e-17 
6448.00 9.0491e-17 
6449.50 8.7861e-17 
6451.00 8.8921e-17 
6452.50 9.1203e-17 
6454.00 8.9056e-17 
6455.50 8.7042e-17 
6457.00 8.7520e-17 
6458.50 9.1017e-17 
6460.00 8.1241e-17 
6461.50 8.4371e-17 
6463.00 8.4699e-17 
6464.50 8.5921e-17 
6466.00 8.8233e-17 
6467.50 9.8656e-17 
6469.00 9.8546e-17 
6470.50 8.9042e-17 
6472.00 9.0343e-17 
6473.50 9.4555e-17 
6475.00 9.4201e-17 
6476.50 8.6916e-17 
6478.00 8.0525e-17 
6479.50 8.7858e-17 
6481.00 9.2903e-17 
6482.50 8.9134e-17 
6484.00 8.6213e-17 
6485.50 9.2789e-17 
6487.00 9.3124e-17 
6488.50 8.7616e-17 
6490.00 8.7539e-17 
6491.50 9.2024e-17 
6493.00 9.1909e-17 
6494.50 8.9375e-17 
6496.00 8.9449e-17 
6497.50 8.5122e-17 
6499.00 7.3868e-17 
6500.50 7.8261e-17 
6502.00 9.0889e-17 
6503.50 8.8615e-17 
6505.00 8.2728e-17 
6506.50 8.4269e-17 
6508.00 8.7496e-17 
6509.50 9.2902e-17 
6511.00 9.6943e-17 
6512.50 8.5821e-17 
6514.00 8.4269e-17 
6515.50 8.8823e-17 
6517.00 8.5044e-17 
6518.50 8.1577e-17 
6520.00 8.1124e-17 
6521.50 8.7470e-17 
6523.00 9.0218e-17 
6524.50 8.3988e-17 
6526.00 8.2342e-17 
6527.50 8.7662e-17 
6529.00 8.9153e-17 
6530.50 9.2421e-17 
6532.00 9.0433e-17 
6533.50 8.4279e-17 
6535.00 9.0032e-17 
6536.50 8.5565e-17 
6538.00 7.8357e-17 
6539.50 8.1619e-17 
6541.00 8.4104e-17 
6542.50 8.4908e-17 
6544.00 8.4559e-17 
6545.50 8.4205e-17 
6547.00 8.6353e-17 
6548.50 8.6241e-17 
6550.00 8.5681e-17 
6551.50 8.6151e-17 
6553.00 8.3327e-17 
6554.50 8.1328e-17 
6556.00 8.8645e-17 
6557.50 8.8890e-17 
6559.00 7.9122e-17 
6560.50 8.6764e-17 
6562.00 8.8075e-17 
6563.50 8.8313e-17 
6565.00 9.5259e-17 
6566.50 8.7712e-17 
6568.00 7.6631e-17 
6569.50 7.5553e-17 
6571.00 8.3451e-17 
6572.50 9.1014e-17 
6574.00 8.7844e-17 
6575.50 8.6803e-17 
6577.00 8.0918e-17 
6578.50 8.2313e-17 
6580.00 8.9600e-17 
6581.50 8.3061e-17 
6583.00 7.5672e-17 
6584.50 6.3915e-17 
6586.00 6.3853e-17 
6587.50 7.9651e-17 
6589.00 8.2759e-17 
6590.50 8.3450e-17 
6592.00 8.3915e-17 
6593.50 8.5796e-17 
6595.00 8.8047e-17 
6596.50 8.4080e-17 
6598.00 8.3716e-17 
6599.50 9.6060e-17 
6601.00 8.9834e-17 
6602.50 8.6495e-17 
6604.00 8.0287e-17 
6605.50 7.3763e-17 
6607.00 8.0629e-17 
6608.50 8.4270e-17 
6610.00 8.8623e-17 
6611.50 9.6727e-17 
6613.00 8.1546e-17 
6614.50 7.8746e-17 
6616.00 8.0022e-17 
6617.50 8.5066e-17 
6619.00 9.6340e-17 
6620.50 8.5128e-17 
6622.00 8.2562e-17 
6623.50 8.8259e-17 
6625.00 8.7991e-17 
6626.50 8.5670e-17 
6628.00 9.2701e-17 
6629.50 8.7079e-17 
6631.00 9.8031e-17 
6632.50 9.7019e-17 
6634.00 8.6717e-17 
6635.50 8.2278e-17 
6637.00 8.0838e-17 
6638.50 8.3952e-17 
6640.00 8.8035e-17 
6641.50 8.2904e-17 
6643.00 7.6312e-17 
6644.50 7.8195e-17 
6646.00 8.2418e-17 
6647.50 8.7398e-17 
6649.00 8.6227e-17 
6650.50 8.5821e-17 
6652.00 8.9292e-17 
6653.50 8.7309e-17 
6655.00 8.6425e-17 
6656.50 8.6789e-17 
6658.00 8.0330e-17 
6659.50 8.1508e-17 
6661.00 8.6289e-17 
6662.50 8.6003e-17 
6664.00 9.2357e-17 
6665.50 8.5111e-17 
6667.00 8.7110e-17 
6668.50 9.0406e-17 
6670.00 8.2812e-17 
6671.50 7.7480e-17 
6673.00 8.2188e-17 
6674.50 8.8194e-17 
6676.00 8.6512e-17 
6677.50 8.6226e-17 
6679.00 8.8999e-17 
6680.50 8.0189e-17 
6682.00 8.3746e-17 
6683.50 8.9401e-17 
6685.00 8.6893e-17 
6686.50 8.1721e-17 
6688.00 9.2852e-17 
6689.50 9.6498e-17 
6691.00 8.2873e-17 
6692.50 5.8773e-17 
6694.00 5.7297e-17 
6695.50 7.3854e-17 
6697.00 9.1523e-17 
6698.50 8.4873e-17 
6700.00 8.0516e-17 
6701.50 8.4092e-17 
6703.00 7.9420e-17 
6704.50 7.8256e-17 
6706.00 8.4313e-17 
6707.50 8.5924e-17 
6709.00 8.5264e-17 
6710.50 8.4762e-17 
6712.00 8.1243e-17 
6713.50 8.0961e-17 
6715.00 8.9180e-17 
6716.50 8.7922e-17 
6718.00 7.6626e-17 
6719.50 8.1065e-17 
6721.00 8.6564e-17 
6722.50 8.2806e-17 
6724.00 8.9956e-17 
6725.50 8.3451e-17 
6727.00 9.1806e-17 
6728.50 9.6032e-17 
6730.00 9.9499e-17 
6731.50 8.1284e-17 
6733.00 8.0813e-17 
6734.50 9.0037e-17 
6736.00 8.5919e-17 
6737.50 8.7662e-17 
6739.00 8.5195e-17 
6740.50 8.1387e-17 
6742.00 8.8819e-17 
6743.50 8.9204e-17 
6745.00 8.3846e-17 
6746.50 8.3298e-17 
6748.00 8.1169e-17 
6749.50 8.6254e-17 
6751.00 8.8390e-17 
6752.50 8.5103e-17 
6754.00 8.3981e-17 
6755.50 8.6913e-17 
6757.00 8.8418e-17 
6758.50 9.0564e-17 
6760.00 9.1341e-17 
6761.50 8.6642e-17 
6763.00 8.5592e-17 
6764.50 9.0977e-17 
6766.00 8.6753e-17 
6767.50 7.4993e-17 
6769.00 8.1685e-17 
6770.50 8.5413e-17 
6772.00 8.4230e-17 
6773.50 8.2091e-17 
6775.00 8.5878e-17 
6776.50 8.6228e-17 
6778.00 8.4367e-17 
6779.50 8.3758e-17 
6781.00 8.4249e-17 
6782.50 8.8218e-17 
6784.00 8.7566e-17 
6785.50 8.2261e-17 
6787.00 8.2812e-17 
6788.50 8.4210e-17 
6790.00 8.5984e-17 
6791.50 9.0144e-17 
6793.00 9.0437e-17 
6794.50 8.7191e-17 
6796.00 8.7065e-17 
6797.50 8.8461e-17 
6799.00 8.5046e-17 
6800.50 8.2453e-17 
6802.00 8.5212e-17 
6803.50 8.4089e-17 
6805.00 8.3416e-17 
6806.50 8.9908e-17 
6808.00 8.4480e-17 
6809.50 8.3785e-17 
6811.00 9.8454e-17 
6812.50 9.4176e-17 
6814.00 8.7917e-17 
6815.50 8.2832e-17 
6817.00 8.9321e-17 
6818.50 8.6586e-17 
6820.00 8.1586e-17 
6821.50 8.2118e-17 
6823.00 8.5030e-17 
6824.50 8.8804e-17 
6826.00 9.0181e-17 
6827.50 8.9184e-17 
6829.00 8.5177e-17 
6830.50 8.6947e-17 
6832.00 9.2265e-17 
6833.50 9.1087e-17 
6835.00 8.8659e-17 
6836.50 9.4957e-17 
6838.00 9.6538e-17 
6839.50 8.0883e-17 
6841.00 8.5438e-17 
6842.50 8.4126e-17 
6844.00 9.9016e-17 
6845.50 8.5458e-17 
6847.00 8.4895e-17 
6848.50 8.5182e-17 
6850.00 8.5015e-17 
6851.50 9.4808e-17 
6853.00 9.0964e-17 
6854.50 8.5005e-17 
6856.00 8.4402e-17 
6857.50 8.8076e-17 
6859.00 8.4893e-17 
6860.50 8.0703e-17 
6862.00 8.1188e-17 
6863.50 7.9492e-17 
6865.00 8.2431e-17 
6866.50 9.0978e-17 
6868.00 8.6621e-17 
6869.50 8.3859e-17 
6871.00 8.6987e-17 
6872.50 7.5710e-17 
6874.00 7.1453e-17 
6875.50 5.9821e-17 
6877.00 7.5490e-17 
6878.50 8.1686e-17 
6880.00 8.3736e-17 
6881.50 7.9457e-17 
6883.00 9.2588e-17 
6884.50 1.0033e-16 
6886.00 8.3106e-17 
6887.50 8.6502e-17 
6889.00 8.7768e-17 
6890.50 8.2914e-17 
6892.00 8.2781e-17 
6893.50 8.1952e-17 
6895.00 8.4729e-17 
6896.50 9.2422e-17 
6898.00 8.9657e-17 
6899.50 8.4198e-17 
6901.00 8.6268e-17 
6902.50 9.0735e-17 
6904.00 9.2242e-17 
6905.50 8.6271e-17 
6907.00 8.1578e-17 
6908.50 8.4629e-17 
6910.00 8.9469e-17 
6911.50 9.3509e-17 
6913.00 8.9682e-17 
6914.50 8.4622e-17 
6916.00 8.4633e-17 
6917.50 8.5902e-17 
6919.00 8.5603e-17 
6920.50 8.5258e-17 
6922.00 8.2121e-17 
6923.50 7.5642e-17 
6925.00 7.8474e-17 
6926.50 8.6029e-17 
6928.00 7.9719e-17 
6929.50 8.9632e-17 
6931.00 7.9549e-17 
6932.50 8.8038e-17 
6934.00 8.5165e-17 
6935.50 8.7691e-17 
6937.00 8.3047e-17 
6938.50 8.1236e-17 
6940.00 8.3935e-17 
6941.50 8.5569e-17 
6943.00 7.9333e-17 
6944.50 7.8037e-17 
6946.00 8.9204e-17 
6947.50 9.2916e-17 
6949.00 8.4636e-17 
6950.50 7.5787e-17 
6952.00 1.0137e-16 
6953.50 8.9813e-17 
6955.00 8.0216e-17 
6956.50 8.8528e-17 
6958.00 9.4468e-17 
6959.50 8.5538e-17 
6961.00 8.1993e-17 
6962.50 8.2052e-17 
6964.00 8.5569e-17 
6965.50 8.2171e-17 
6967.00 8.0709e-17 
6968.50 8.4124e-17 
6970.00 8.2787e-17 
6971.50 8.6028e-17 
6973.00 9.4365e-17 
6974.50 9.0949e-17 
6976.00 7.8812e-17 
6977.50 7.9073e-17 
6979.00 8.4336e-17 
6980.50 8.5729e-17 
6982.00 8.9931e-17 
6983.50 8.7412e-17 
6985.00 9.4219e-17 
6986.50 9.2534e-17 
6988.00 8.1990e-17 
6989.50 7.9496e-17 
6991.00 8.5559e-17 
6992.50 8.4618e-17 
6994.00 7.7955e-17 
6995.50 8.2641e-17 
6997.00 7.9850e-17 
6998.50 8.3049e-17 
7000.00 7.4385e-17 
7001.50 8.7156e-17 
7003.00 8.6045e-17 
7004.50 8.4161e-17 
7006.00 9.3624e-17 
7007.50 8.4225e-17 
7009.00 8.2383e-17 
7010.50 8.2768e-17 
7012.00 7.8161e-17 
7013.50 7.9634e-17 
7015.00 8.4707e-17 
7016.50 8.5749e-17 
7018.00 8.2041e-17 
7019.50 8.5594e-17 
7021.00 9.1215e-17 
7022.50 8.1924e-17 
7024.00 7.9678e-17 
7025.50 8.3082e-17 
7027.00 8.2809e-17 
7028.50 8.2576e-17 
7030.00 8.3682e-17 
7031.50 8.5853e-17 
7033.00 8.7120e-17 
7034.50 8.6330e-17 
7036.00 8.6387e-17 
7037.50 8.9072e-17 
7039.00 8.8496e-17 
7040.50 8.7039e-17 
7042.00 8.0611e-17 
7043.50 8.4795e-17 
7045.00 9.2236e-17 
7046.50 9.1482e-17 
7048.00 8.5165e-17 
7049.50 8.1604e-17 
7051.00 8.6137e-17 
7052.50 8.8546e-17 
7054.00 8.5181e-17 
7055.50 8.4645e-17 
7057.00 8.2402e-17 
7058.50 8.2071e-17 
7060.00 9.0859e-17 
7061.50 7.7132e-17 
7063.00 7.7780e-17 
7064.50 7.4406e-17 
7066.00 7.9855e-17 
7067.50 8.6397e-17 
7069.00 8.1860e-17 
7070.50 8.4759e-17 
7072.00 9.2655e-17 
7073.50 9.1406e-17 
7075.00 8.9319e-17 
7076.50 9.2580e-17 
7078.00 8.8630e-17 
7079.50 8.3391e-17 
7081.00 8.9509e-17 
7082.50 8.6264e-17 
7084.00 8.2387e-17 
7085.50 8.6651e-17 
7087.00 8.7916e-17 
7088.50 9.3990e-17 
7090.00 9.7149e-17 
7091.50 8.9769e-17 
7093.00 8.5770e-17 
7094.50 9.3980e-17 
7096.00 8.5406e-17 
7097.50 9.3576e-17 
7099.00 7.9723e-17 
7100.50 9.3999e-17 
7102.00 9.5765e-17 
7103.50 8.6266e-17 
7105.00 8.2178e-17 
7106.50 8.5002e-17 
7108.00 8.6685e-17 
7109.50 8.3852e-17 
7111.00 8.2095e-17 
7112.50 8.7053e-17 
7114.00 9.2441e-17 
7115.50 8.1243e-17 
7117.00 7.7077e-17 
7118.50 9.0822e-17 
7120.00 9.0069e-17 
7121.50 8.6939e-17 
7123.00 8.7583e-17 
7124.50 8.8094e-17 
7126.00 8.3724e-17 
7127.50 7.8861e-17 
7129.00 8.0558e-17 
7130.50 8.4740e-17 
7132.00 8.1974e-17 
7133.50 8.3114e-17 
7135.00 9.1210e-17 
7136.50 9.1065e-17 
7138.00 8.5108e-17 
7139.50 8.7529e-17 
7141.00 8.7259e-17 
7142.50 7.8406e-17 
7144.00 7.4363e-17 
7145.50 8.0573e-17 
7147.00 8.3567e-17 
7148.50 8.4003e-17 
7150.00 8.2821e-17 
7151.50 8.4631e-17 
7153.00 7.8338e-17 
7154.50 7.6901e-17 
7156.00 8.2620e-17 
7157.50 8.4681e-17 
7159.00 8.8407e-17 
7160.50 8.8593e-17 
7162.00 8.4164e-17 
7163.50 8.4172e-17 
7165.00 8.4769e-17 
7166.50 8.6077e-17 
7168.00 8.7812e-17 
7169.50 8.6623e-17 
7171.00 9.4620e-17 
7172.50 8.8038e-17 
7174.00 8.4676e-17 
7175.50 8.7753e-17 
7177.00 8.4920e-17 
7178.50 7.9525e-17 
7180.00 8.7122e-17 
7181.50 9.5475e-17 
7183.00 9.4185e-17 
7184.50 8.0184e-17 
7186.00 8.6017e-17 
7187.50 8.7438e-17 
7189.00 8.4325e-17 
7190.50 8.4775e-17 
7192.00 8.3964e-17 
7193.50 8.5960e-17 
7195.00 8.8571e-17 
7196.50 8.0764e-17 
7198.00 8.7576e-17 
7199.50 9.5108e-17 
7201.00 8.8319e-17 
7202.50 8.6298e-17 
7204.00 8.4975e-17 
7205.50 9.5950e-17 
7207.00 9.0769e-17 
7208.50 7.8976e-17 
7210.00 8.2107e-17 
7211.50 9.2338e-17 
7213.00 8.5512e-17 
7214.50 9.5832e-17 
7216.00 8.0961e-17 
7217.50 8.3293e-17 
7219.00 7.5545e-17 
7220.50 8.3677e-17 
7222.00 8.8005e-17 
7223.50 8.4417e-17 
7225.00 8.3398e-17 
7226.50 8.5065e-17 
7228.00 7.8139e-17 
7229.50 9.1795e-17 
7231.00 7.8258e-17 
7232.50 7.9737e-17 
7234.00 7.6031e-17 
7235.50 8.3867e-17 
7237.00 8.4502e-17 
7238.50 8.5574e-17 
7240.00 8.2914e-17 
7241.50 7.6462e-17 
7243.00 8.5805e-17 
7244.50 8.0986e-17 
7246.00 7.8159e-17 
7247.50 8.0439e-17 
7249.00 8.6069e-17 
7250.50 7.5299e-17 
7252.00 7.1551e-17 
7253.50 7.7810e-17 
7255.00 8.2198e-17 
7256.50 7.8873e-17 
7258.00 7.7923e-17 
7259.50 8.5588e-17 
7261.00 9.0459e-17 
7262.50 8.5121e-17 
7264.00 7.2139e-17 
7265.50 7.1317e-17 
7267.00 6.9843e-17 
7268.50 6.8539e-17 
7270.00 7.6840e-17 
7271.50 9.0312e-17 
7273.00 8.5302e-17 
7274.50 9.1084e-17 
7276.00 7.0289e-17 
7277.50 8.6659e-17 
7279.00 1.0279e-16 
7280.50 9.8137e-17 
7282.00 8.7694e-17 
7283.50 7.8014e-17 
7285.00 6.8583e-17 
7286.50 6.7803e-17 
7288.00 8.8902e-17 
7289.50 8.6477e-17 
7291.00 7.3823e-17 
7292.50 8.4629e-17 
7294.00 8.9488e-17 
7295.50 9.0703e-17 
7297.00 8.7755e-17 
7298.50 8.0446e-17 
7300.00 7.4926e-17 
7301.50 7.8973e-17 
7303.00 6.4132e-17 
7304.50 3.6037e-17 
7306.00 7.0618e-17 
7307.50 7.8994e-17 
7309.00 8.0780e-17 
7310.50 8.2486e-17 
7312.00 8.3091e-17 
7313.50 8.4577e-17 
7315.00 8.8962e-17 
7316.50 6.3037e-17 
7318.00 8.3413e-17 
7319.50 8.9060e-17 
7321.00 8.7533e-17 
7322.50 8.4238e-17 
7324.00 8.3722e-17 
7325.50 8.5745e-17 
7327.00 8.8644e-17 
7328.50 8.9860e-17 
7330.00 6.4635e-17 
7331.50 7.3313e-17 
7333.00 7.4029e-17 
7334.50 7.9512e-17 
7336.00 7.9579e-17 
7337.50 8.2157e-17 
7339.00 8.4264e-17 
7340.50 7.4886e-17 
7342.00 5.9837e-17 
7343.50 9.5966e-17 
7345.00 8.8340e-17 
7346.50 8.4471e-17 
7348.00 7.8032e-17 
7349.50 7.4469e-17 
7351.00 7.5406e-17 
7352.50 8.0095e-17 
7354.00 8.6215e-17 
7355.50 8.9928e-17 
7357.00 8.5498e-17 
7358.50 8.2100e-17 
7360.00 8.7065e-17 
7361.50 8.8343e-17 
7363.00 8.6057e-17 
7364.50 8.4133e-17 
7366.00 8.1595e-17 
7367.50 7.4685e-17 
7369.00 6.9809e-17 
7370.50 7.0418e-17 
7372.00 7.9343e-17 
7373.50 7.8548e-17 
7375.00 8.2981e-17 
7376.50 8.6513e-17 
7378.00 8.5553e-17 
7379.50 8.2573e-17 
7381.00 8.1879e-17 
7382.50 8.2458e-17 
7384.00 8.7539e-17 
7385.50 8.7199e-17 
7387.00 9.4068e-17 
7388.50 9.0903e-17 
7390.00 8.4084e-17 
7391.50 7.8319e-17 
7393.00 7.1021e-17 
7394.50 6.7898e-17 
7396.00 8.3753e-17 
7397.50 8.7686e-17 
7399.00 7.8467e-17 
7400.50 7.9837e-17 
7402.00 7.2714e-17 
7403.50 7.5792e-17 
7405.00 9.6235e-17 
7406.50 8.2729e-17 
7408.00 8.2354e-17 
7409.50 8.4822e-17 
7411.00 8.2425e-17 
7412.50 7.7434e-17 
7414.00 7.0662e-17 
7415.50 7.1041e-17 
7417.00 7.9389e-17 
7418.50 8.4897e-17 
7420.00 9.5317e-17 
7421.50 8.2652e-17 
7423.00 8.3629e-17 
7424.50 8.2957e-17 
7426.00 7.6855e-17 
7427.50 7.5995e-17 
7429.00 7.9656e-17 
7430.50 7.7462e-17 
7432.00 8.8214e-17 
7433.50 7.9044e-17 
7435.00 7.8917e-17 
7436.50 8.0251e-17 
7438.00 7.8292e-17 
7439.50 7.9365e-17 
7441.00 8.4995e-17 
7442.50 8.5506e-17 
7444.00 6.3647e-17 
7445.50 7.9210e-17 
7447.00 8.1759e-17 
7448.50 7.5254e-17 
7450.00 8.0026e-17 
7451.50 8.7064e-17 
7453.00 8.7150e-17 
7454.50 8.1176e-17 
7456.00 7.1345e-17 
7457.50 8.7824e-17 
7459.00 7.8248e-17 
7460.50 7.6394e-17 
7462.00 8.2436e-17 
7463.50 8.3445e-17 
7465.00 8.0917e-17 
7466.50 8.7345e-17 
7468.00 7.8403e-17 
7469.50 8.8388e-17 
7471.00 7.9344e-17 
7472.50 7.9447e-17 
7474.00 7.6317e-17 
7475.50 7.6087e-17 
7477.00 7.8417e-17 
7478.50 6.9742e-17 
7480.00 7.3706e-17 
7481.50 8.9364e-17 
7483.00 8.9827e-17 
7484.50 7.0935e-17 
7486.00 7.5596e-17 
7487.50 8.6092e-17 
7489.00 7.7916e-17 
7490.50 7.9279e-17 
7492.00 7.4338e-17 
7493.50 6.9457e-17 
7495.00 7.6773e-17 
7496.50 7.7488e-17 
7498.00 7.9383e-17 
7499.50 8.4009e-17 
7501.00 8.5675e-17 
7502.50 8.6084e-17 
7504.00 7.1462e-17 
7505.50 7.4329e-17 
7507.00 7.5753e-17 
7508.50 7.4067e-17 
7510.00 7.7586e-17 
7511.50 8.4709e-17 
7513.00 7.9878e-17 
7514.50 7.8801e-17 
7516.00 8.6571e-17 
7517.50 8.0920e-17 
7519.00 7.6810e-17 
7520.50 7.7217e-17 
7522.00 7.9131e-17 
7523.50 7.7696e-17 
7525.00 7.2076e-17 
7526.50 9.4127e-17 
7528.00 8.7564e-17 
7529.50 7.7498e-17 
7531.00 7.3585e-17 
7532.50 7.7845e-17 
7534.00 8.4999e-17 
7535.50 8.5305e-17 
7537.00 7.8612e-17 
7538.50 7.9126e-17 
7540.00 8.2846e-17 
7541.50 8.3097e-17 
7543.00 8.1013e-17 
7544.50 7.9422e-17 
7546.00 8.0191e-17 
7547.50 8.1050e-17 
7549.00 8.5175e-17 
7550.50 8.4549e-17 
7552.00 8.5437e-17 
7553.50 8.2690e-17 
7555.00 7.9488e-17 
7556.50 7.9111e-17 
7558.00 7.2147e-17 
7559.50 8.0121e-17 
7561.00 8.0499e-17 
7562.50 7.3187e-17 
7564.00 8.3127e-17 
7565.50 9.1729e-17 
7567.00 8.2981e-17 
7568.50 7.6011e-17 
7570.00 8.3206e-17 
7571.50 8.1192e-17 
7573.00 8.1016e-17 
7574.50 8.2207e-17 
7576.00 8.0253e-17 
7577.50 7.4029e-17 
7579.00 6.9242e-17 
7580.50 8.1414e-17 
7582.00 7.5808e-17 
7583.50 8.5963e-17 
7585.00 8.8425e-17 
7586.50 7.5740e-17 
7588.00 6.3358e-17 
7589.50 7.8962e-17 
7591.00 7.7322e-17 
7592.50 8.0524e-17 
7594.00 7.5717e-17 
7595.50 7.5609e-17 
7597.00 7.7462e-17 
7598.50 7.5564e-17 
7600.00 6.7535e-17 
7601.50 7.5538e-17 
7603.00 6.8562e-17 
7604.50 5.9779e-17 
7606.00 7.8021e-17 
7607.50 8.8930e-17 
7609.00 8.1364e-17 
7610.50 7.9359e-17 
7612.00 7.9998e-17 
7613.50 7.2614e-17 
7615.00 7.6577e-17 
7616.50 8.1893e-17 
7618.00 8.2487e-17 
7619.50 8.1239e-17 
7621.00 8.8170e-17 
7622.50 8.2939e-17 
7624.00 7.7681e-17 
7625.50 8.0579e-17 
7627.00 8.0700e-17 
7628.50 7.4400e-17 
7630.00 7.0951e-17 
7631.50 9.1455e-17 
7633.00 7.6016e-17 
7634.50 6.9892e-17 
7636.00 8.5011e-17 
7637.50 8.0384e-17 
7639.00 7.1877e-17 
7640.50 7.6395e-17 
7642.00 7.2227e-17 
7643.50 6.4289e-17 
7645.00 7.4414e-17 
7646.50 7.2391e-17 
7648.00 6.9612e-17 
7649.50 7.1261e-17 
7651.00 7.5512e-17 
7652.50 6.9811e-17 
7654.00 8.1004e-17 
7655.50 7.4379e-17 
7657.00 7.7818e-17 
7658.50 7.4392e-17 
7660.00 6.5092e-17 
7661.50 6.6519e-17 
7663.00 7.5326e-17 
7664.50 8.5138e-17 
7666.00 8.1943e-17 
7667.50 7.7447e-17 
7669.00 7.9903e-17 
7670.50 8.6777e-17 
7672.00 8.0562e-17 
7673.50 7.3962e-17 
7675.00 7.4575e-17 
7676.50 7.8394e-17 
7678.00 8.1900e-17 
7679.50 8.4646e-17 
7681.00 8.4959e-17 
7682.50 6.9571e-17 
7684.00 8.0183e-17 
7685.50 8.5253e-17 
7687.00 7.6840e-17 
7688.50 7.1978e-17 
7690.00 7.5562e-17 
7691.50 7.6512e-17 
7693.00 6.9769e-17 
7694.50 7.3974e-17 
7696.00 7.1810e-17 
7697.50 7.1829e-17 
7699.00 7.3517e-17 
7700.50 7.4413e-17 
7702.00 7.6162e-17 
7703.50 7.5746e-17 
7705.00 7.6443e-17 
7706.50 7.6144e-17 
7708.00 7.0322e-17 
7709.50 6.6936e-17 
7711.00 8.2799e-17 
7712.50 5.1337e-17 
7714.00 7.1519e-17 
7715.50 8.6037e-17 
7717.00 7.3752e-17 
7718.50 7.1483e-17 
7720.00 1.0670e-16 
7721.50 7.2330e-17 
7723.00 8.1053e-17 
7724.50 7.8839e-17 
7726.00 7.6685e-17 
7727.50 7.6782e-17 
7729.00 7.7363e-17 
7730.50 7.2298e-17 
7732.00 6.6613e-17 
7733.50 8.0549e-17 
7735.00 8.0901e-17 
7736.50 7.6032e-17 
7738.00 7.2527e-17 
7739.50 7.4547e-17 
7741.00 8.1483e-17 
7742.50 7.5356e-17 
7744.00 7.2598e-17 
7745.50 6.8834e-17 
7747.00 6.9929e-17 
7748.50 8.0711e-17 
7750.00 9.2009e-17 
7751.50 5.9279e-17 
7753.00 1.1084e-16 
7754.50 1.0944e-16 
7756.00 8.3908e-17 
7757.50 6.9993e-17 
7759.00 7.4994e-17 
7760.50 5.3302e-17 
7762.00 8.9380e-17 
7763.50 8.3936e-17 
7765.00 7.4893e-17 
7766.50 7.6465e-17 
7768.00 7.1379e-17 
7769.50 7.2373e-17 
7771.00 7.4716e-17 
7772.50 7.2982e-17 
7774.00 7.8257e-17 
7775.50 8.3891e-17 
7777.00 7.4314e-17 
7778.50 6.9989e-17 
7780.00 7.6707e-17 
7781.50 7.3570e-17 
7783.00 7.6609e-17 
7784.50 7.7821e-17 
7786.00 6.6007e-17 
7787.50 8.2473e-17 
7789.00 7.0199e-17 
7790.50 6.9723e-17 
7792.00 7.3854e-17 
7793.50 6.6260e-17 
7795.00 4.2884e-17 
7796.50 8.3017e-17 
7798.00 7.3872e-17 
7799.50 7.3051e-17 
7801.00 7.6671e-17 
7802.50 7.9381e-17 
7804.00 7.7254e-17 
7805.50 7.4267e-17 
7807.00 8.4545e-17 
7808.50 7.1626e-17 
7810.00 6.9852e-17 
7811.50 7.6212e-17 
7813.00 8.0726e-17 
7814.50 7.0393e-17 
7816.00 7.5566e-17 
7817.50 7.2991e-17 
7819.00 7.0762e-17 
7820.50 7.1686e-17 
7822.00 7.2694e-17 
7823.50 4.8542e-17 
7825.00 1.1971e-16 
7826.50 7.3435e-17 
7828.00 6.2130e-17 
7829.50 7.2625e-17 
7831.00 7.4635e-17 
7832.50 8.0173e-17 
7834.00 6.9437e-17 
7835.50 6.9776e-17 
7837.00 7.5719e-17 
7838.50 8.0086e-17 
7840.00 7.5677e-17 
7841.50 5.5646e-17 
7843.00 6.5597e-17 
7844.50 6.5621e-17 
7846.00 7.0812e-17 
7847.50 7.8318e-17 
7849.00 8.0622e-17 
7850.50 6.7002e-17 
7852.00 6.7718e-17 
7853.50 1.7553e-17 
7855.00 2.5871e-17 
7856.50 6.0405e-17 
7858.00 4.0645e-17 
7859.50 6.3825e-17 
7861.00 6.8868e-17 
7862.50 7.7581e-17 
7864.00 7.9385e-17 
7865.50 7.4883e-17 
7867.00 7.2307e-17 
7868.50 7.8472e-17 
7870.00 8.1124e-17 
7871.50 6.6636e-17 
7873.00 5.4718e-17 
7874.50 4.8487e-17 
7876.00 2.9812e-17 
7877.50 5.0777e-17 
7879.00 6.0811e-17 
7880.50 7.2164e-17 
7882.00 7.6280e-17 
7883.50 7.1697e-17 
7885.00 7.8945e-17 
7886.50 7.4099e-17 
7888.00 7.1566e-17 
7889.50 6.0459e-17 
7891.00 5.6427e-17 
7892.50 7.2812e-17 
7894.00 7.1347e-17 
7895.50 8.2275e-17 
7897.00 7.3267e-17 
7898.50 7.6155e-17 
7900.00 8.5907e-17 
7901.50 8.0071e-17 
7903.00 6.1904e-17 
7904.50 7.5808e-17 
7906.00 7.6036e-17 
7907.50 7.6368e-17 
7909.00 8.0247e-17 
7910.50 7.5974e-17 
7912.00 7.5662e-17 
7913.50 5.9015e-17 
7915.00 6.2041e-17 
7916.50 8.0904e-17 
7918.00 1.0314e-16 
7919.50 8.5798e-17 
7921.00 6.2101e-17 
7922.50 6.5859e-17 
7924.00 7.3798e-17 
7925.50 7.7861e-17 
7927.00 7.3952e-17 
7928.50 8.4370e-17 
7930.00 8.3046e-17 
7931.50 6.7200e-17 
7933.00 6.5943e-17 
7934.50 8.5084e-17 
7936.00 7.9034e-17 
7937.50 8.3713e-17 
7939.00 8.6220e-17 
7940.50 7.0935e-17 
7942.00 5.9620e-17 
7943.50 7.9128e-17 
7945.00 7.7444e-17 
7946.50 8.0800e-17 
7948.00 7.2870e-17 
7949.50 6.7025e-17 
7951.00 6.7801e-17 
7952.50 7.1740e-17 
7954.00 7.5929e-17 
7955.50 7.1108e-17 
7957.00 6.6344e-17 
7958.50 6.5201e-17 
7960.00 7.0215e-17 
7961.50 8.1078e-17 
7963.00 9.4415e-17 
7964.50 7.0483e-17 
7966.00 6.7997e-17 
7967.50 8.9741e-17 
7969.00 7.5944e-17 
7970.50 7.5983e-17 
7972.00 6.9912e-17 
7973.50 7.5132e-17 
7975.00 7.9833e-17 
7976.50 7.0976e-17 
7978.00 8.1809e-17 
7979.50 7.4946e-17 
7981.00 7.7491e-17 
7982.50 8.1373e-17 
7984.00 7.9881e-17 
7985.50 5.9661e-17 
7987.00 6.7120e-17 
7988.50 6.6512e-17 
7990.00 7.3774e-17 
7991.50 8.2724e-17 
7993.00 8.1870e-17 
7994.50 7.3758e-17 
7996.00 1.0508e-16 
7997.50 8.0818e-17 
7999.00 5.6682e-17 
8000.50 6.4208e-17 
8002.00 7.9870e-17 
8003.50 7.3080e-17 
8005.00 7.7349e-17 
8006.50 7.7000e-17 
8008.00 7.4031e-17 
8009.50 8.2313e-17 
8011.00 7.3130e-17 
8012.50 7.0814e-17 
8014.00 6.8373e-17 
8015.50 6.8581e-17 
8017.00 7.4545e-17 
8018.50 8.5961e-17 
8020.00 7.2462e-17 
8021.50 7.5096e-17 
8023.00 8.1731e-17 
8024.50 8.1092e-17 
8026.00 4.0682e-17 
8027.50 8.9879e-17 
8029.00 7.9561e-17 
8030.50 6.9837e-17 
8032.00 7.1406e-17 
8033.50 7.8762e-17 
8035.00 7.5271e-17 
8036.50 6.9484e-17 
8038.00 7.0018e-17 
8039.50 7.6419e-17 
8041.00 8.6508e-17 
8042.50 6.7400e-17 
8044.00 7.4478e-17 
8045.50 7.5557e-17 
8047.00 7.6765e-17 
8048.50 8.0754e-17 
8050.00 6.9687e-17 
8051.50 6.8560e-17 
8053.00 7.2723e-17 
8054.50 7.7290e-17 
8056.00 7.9439e-17 
8057.50 7.4523e-17 
8059.00 7.1927e-17 
8060.50 8.1562e-17 
8062.00 7.3151e-17 
8063.50 6.1513e-17 
8065.00 1.0106e-16 
8066.50 6.0265e-17 
8068.00 6.9862e-17 
8069.50 7.9912e-17 
8071.00 8.4204e-17 
8072.50 7.9854e-17 
8074.00 7.1203e-17 
8075.50 8.0400e-17 
8077.00 7.9336e-17 
8078.50 7.3236e-17 
8080.00 6.8552e-17 
8081.50 8.0541e-17 
8083.00 8.1623e-17 
8084.50 7.6328e-17 
8086.00 7.2563e-17 
8087.50 7.5477e-17 
8089.00 8.4287e-17 
8090.50 8.0401e-17 
8092.00 7.0888e-17 
8093.50 6.8078e-17 
8095.00 7.5769e-17 
8096.50 8.0187e-17 
8098.00 7.4158e-17 
8099.50 7.7034e-17 
8101.00 7.9068e-17 
8102.50 7.7868e-17 
8104.00 7.6858e-17 
8105.50 7.7516e-17 
8107.00 7.6647e-17 
8108.50 7.5259e-17 
8110.00 7.4242e-17 
8111.50 7.6117e-17 
8113.00 8.1731e-17 
8114.50 7.6630e-17 
8116.00 7.7508e-17 
8117.50 8.3555e-17 
8119.00 8.3456e-17 
8120.50 7.2167e-17 
8122.00 7.5625e-17 
8123.50 7.7359e-17 
8125.00 7.5400e-17 
8126.50 6.9935e-17 
8128.00 8.3168e-17 
8129.50 8.3995e-17 
8131.00 8.5587e-17 
8132.50 8.6326e-17 
8134.00 7.8638e-17 
8135.50 7.4137e-17 
8137.00 8.7203e-17 
8138.50 8.8055e-17 
8140.00 8.0496e-17 
8141.50 7.9226e-17 
8143.00 8.4329e-17 
8144.50 8.4289e-17 
8146.00 7.7256e-17 
8147.50 7.2574e-17 
8149.00 9.2672e-17 
8150.50 8.4261e-17 
8152.00 8.4214e-17 
8153.50 8.3319e-17 
8155.00 8.0872e-17 
8156.50 7.6811e-17 
8158.00 9.2197e-17 
8159.50 9.1134e-17 
8161.00 8.6102e-17 
8162.50 8.1698e-17 
8164.00 8.6636e-17 
8165.50 9.7970e-17 
8167.00 9.3325e-17 
8168.50 8.7127e-17 
8170.00 8.3009e-17 
8171.50 8.6503e-17 
8173.00 8.4988e-17 
8174.50 8.5964e-17 
8176.00 8.5347e-17 
8177.50 8.4810e-17 
8179.00 9.4637e-17 
8180.50 9.0134e-17 
8182.00 8.7029e-17 
8183.50 8.6817e-17 
8185.00 8.9725e-17 
8186.50 9.4924e-17 
8188.00 9.5488e-17 
8189.50 9.4675e-17 
8191.00 9.5304e-17 
8192.50 9.7671e-17 
8194.00 9.6345e-17 
8195.50 9.0376e-17 
8197.00 8.9041e-17 
8198.50 9.2479e-17 
8200.00 1.0019e-16 
8201.50 9.5107e-17 
8203.00 8.8943e-17 
8204.50 8.5369e-17 
8206.00 8.1994e-17 
8207.50 7.7518e-17 
8209.00 9.3302e-17 
8210.50 9.4651e-17 
8212.00 9.6686e-17 
8213.50 9.5139e-17 
8215.00 8.4172e-17 
8216.50 8.4227e-17 
8218.00 9.0205e-17 
8219.50 9.1696e-17 
8221.00 9.1229e-17 
8222.50 9.4991e-17 
8224.00 9.2805e-17 
8225.50 8.4483e-17 
8227.00 8.3413e-17 
8228.50 8.8834e-17 
8230.00 9.1914e-17 
8231.50 9.3941e-17 
8233.00 8.7892e-17 
8234.50 8.5214e-17 
8236.00 8.8186e-17 
8237.50 8.8479e-17 
8239.00 1.0093e-16 
8240.50 1.0177e-16 
8242.00 9.5911e-17 
8243.50 8.5327e-17 
8245.00 8.4114e-17 
8246.50 9.1943e-17 
8248.00 8.9468e-17 
8249.50 8.2891e-17 
8251.00 7.8845e-17 
8252.50 9.9476e-17 
8254.00 9.3432e-17 
8255.50 8.8161e-17 
8257.00 8.5892e-17 
8258.50 8.8765e-17 
8260.00 9.2999e-17 
8261.50 9.3945e-17 
8263.00 9.0486e-17 
8264.50 8.3424e-17 
8266.00 8.3212e-17 
8267.50 8.4597e-17 
8269.00 8.4246e-17 
8270.50 8.1352e-17 
8272.00 7.5071e-17 
8273.50 8.6097e-17 
8275.00 7.7435e-17 
8276.50 8.4348e-17 
8278.00 9.0785e-17 
8279.50 6.6782e-17 
8281.00 9.8688e-17 
8282.50 7.3000e-17 
8284.00 8.1032e-17 
8285.50 1.1650e-16 
8287.00 7.9164e-17 
8288.50 7.9141e-17 
8290.00 7.6898e-17 
8291.50 7.4882e-17 
8293.00 7.4366e-17 
8294.50 8.2306e-17 
8296.00 7.8835e-17 
8297.50 8.3681e-17 
8299.00 8.3490e-17 
8300.50 5.3241e-17 
8302.00 9.7785e-17 
8303.50 8.0961e-17 
8305.00 7.5930e-17 
8306.50 8.5611e-17 
8308.00 6.9725e-17 
8309.50 8.7000e-17 
8311.00 8.3982e-17 
8312.50 8.0926e-17 
8314.00 8.8519e-17 
8315.50 7.6233e-17 
8317.00 7.1493e-17 
8318.50 7.7554e-17 
8320.00 8.7083e-17 
8321.50 8.3261e-17 
8323.00 8.2902e-17 
8324.50 8.0806e-17 
8326.00 8.2181e-17 
8327.50 8.7298e-17 
8329.00 7.8169e-17 
8330.50 8.5135e-17 
8332.00 8.3843e-17 
8333.50 8.1417e-17 
8335.00 8.5493e-17 
8336.50 7.4966e-17 
8338.00 7.3148e-17 
8339.50 7.5213e-17 
8341.00 8.0674e-17 
8342.50 9.1076e-17 
8344.00 8.1438e-17 
8345.50 6.0722e-17 
8347.00 7.3573e-17 
8348.50 1.6204e-16 
8350.00 6.8303e-17 
8351.50 6.8347e-17 
8353.00 7.0687e-17 
8354.50 7.4293e-17 
8356.00 9.1351e-17 
8357.50 8.3482e-17 
8359.00 7.6656e-17 
8360.50 7.0528e-17 
8362.00 6.5497e-17 
8363.50 1.0270e-16 
8365.00 7.2788e-17 
8366.50 7.0461e-17 
8368.00 8.4969e-17 
8369.50 8.6783e-17 
8371.00 8.7614e-17 
8372.50 7.5913e-17 
8374.00 6.9788e-17 
8375.50 7.7374e-17 
8377.00 6.3733e-17 
8378.50 7.3677e-17 
8380.00 8.2115e-17 
8381.50 8.3491e-17 
8383.00 5.4804e-17 
8384.50 8.8332e-17 
8386.00 9.3503e-17 
8387.50 8.6545e-17 
8389.00 6.9752e-17 
8390.50 6.4571e-17 
8392.00 7.8704e-17 
8393.50 8.2492e-17 
8395.00 7.9779e-17 
8396.50 8.3734e-17 
8398.00 7.3608e-17 
8399.50 4.6960e-17 
8401.00 3.8056e-17 
8402.50 7.2340e-17 
8404.00 5.8561e-17 
8405.50 7.7268e-17 
8407.00 8.1975e-17 
8408.50 7.5054e-17 
8410.00 7.7542e-17 
8411.50 8.4743e-17 
8413.00 8.5228e-17 
8414.50 7.8542e-17 
8416.00 5.9168e-17 
8417.50 7.3950e-17 
8419.00 7.8708e-17 
8420.50 7.8129e-17 
8422.00 7.3077e-17 
8423.50 7.2599e-17 
8425.00 7.4237e-17 
8426.50 6.9722e-17 
8428.00 6.7113e-17 
8429.50 8.2814e-17 
8431.00 1.3271e-17 
8432.50 8.0038e-17 
8434.00 1.2436e-16 
8435.50 9.7637e-17 
8437.00 7.3065e-17 
8438.50 7.3304e-17 
8440.00 7.1438e-17 
8441.50 6.7713e-17 
8443.00 6.1871e-17 
8444.50 6.8350e-17 
8446.00 6.7981e-17 
8447.50 6.8870e-17 
8449.00 7.8580e-17 
8450.50 6.3984e-17 
8452.00 6.6589e-17 
8453.50 6.2183e-17 
8455.00 4.9360e-17 
8456.50 8.9517e-17 
8458.00 7.0216e-17 
8459.50 6.5824e-17 
8461.00 6.9604e-17 
8462.50 7.0344e-17 
8464.00 8.2038e-17 
8465.50 5.3008e-17 
8467.00 4.9549e-17 
8468.50 1.2754e-16 
8470.00 6.2423e-17 
8471.50 7.9822e-17 
8473.00 8.6724e-17 
8474.50 7.5226e-17 
8476.00 7.8509e-17 
8477.50 7.5612e-17 
8479.00 7.1722e-17 
8480.50 6.7879e-17 
8482.00 6.7233e-17 
8483.50 7.1198e-17 
8485.00 7.3020e-17 
8486.50 7.5157e-17 
8488.00 7.9523e-17 
8489.50 6.8729e-17 
8491.00 7.1968e-17 
8492.50 7.2673e-17 
8494.00 6.8345e-17 
8495.50 5.5373e-17 
8497.00 7.5986e-17 
8498.50 7.7285e-17 
8500.00 6.7199e-17 
8501.50 7.6978e-17 
8503.00 7.2143e-17 
8504.50 6.0747e-17 
8506.00 5.4794e-17 
8507.50 7.6660e-17 
8509.00 8.5122e-17 
8510.50 7.3701e-17 
8512.00 6.3375e-17 
8513.50 6.1585e-17 
8515.00 6.3025e-17 
8516.50 6.4977e-17 
8518.00 6.9523e-17 
8519.50 7.6211e-17 
8521.00 7.1348e-17 
8522.50 6.2237e-17 
8524.00 6.7118e-17 
8525.50 7.7426e-17 
8527.00 6.4333e-17 
8528.50 6.7254e-17 
8530.00 6.6364e-17 
8531.50 6.6533e-17 
8533.00 7.5268e-17 
8534.50 7.2487e-17 
8536.00 6.8576e-17 
8537.50 6.3995e-17 
8539.00 5.8471e-17 
8540.50 6.4161e-17 
8542.00 7.0393e-17 
8543.50 7.3040e-17 
8545.00 7.1158e-17 
8546.50 7.0737e-17 
8548.00 5.5827e-17 
8549.50 5.5051e-17 
8551.00 6.5227e-17 
8552.50 7.2124e-17 
8554.00 6.6167e-17 
8555.50 6.9889e-17 
8557.00 7.5301e-17 
8558.50 6.2555e-17 
8560.00 7.2017e-17 
8561.50 6.8575e-17 
8563.00 6.5636e-17 
8564.50 7.7618e-17 
8566.00 7.9753e-17 
8567.50 7.3109e-17 
8569.00 6.5825e-17 
8570.50 6.0473e-17 
8572.00 5.3410e-17 
8573.50 6.1752e-17 
8575.00 6.4326e-17 
8576.50 5.6614e-17 
8578.00 7.0943e-17 
8579.50 7.3795e-17 
8581.00 7.3058e-17 
8582.50 6.9442e-17 
8584.00 8.2327e-17 
8585.50 8.1258e-17 
8587.00 7.7971e-17 
8588.50 7.3349e-17 
8590.00 7.1724e-17 
8591.50 7.9164e-17 
8593.00 8.1431e-17 
8594.50 8.0884e-17 
8596.00 7.8604e-17 
8597.50 6.7504e-17 
8599.00 6.8443e-17 
8600.50 7.3324e-17 
8602.00 7.6577e-17 
8603.50 6.6536e-17 
8605.00 6.1397e-17 
8606.50 5.9301e-17 
8608.00 6.2927e-17 
8609.50 7.0044e-17 
8611.00 7.0568e-17 
8612.50 6.9164e-17 
8614.00 6.5885e-17 
8615.50 6.2385e-17 
8617.00 7.4551e-17 
8618.50 7.5481e-17 
8620.00 5.2075e-17 
8621.50 6.9351e-17 
8623.00 6.2128e-17 
8624.50 6.1136e-17 
8626.00 7.1990e-17 
8627.50 8.9999e-17 
8629.00 7.1782e-17 
8630.50 6.3463e-17 
8632.00 6.8755e-17 
8633.50 5.6105e-17 
8635.00 6.9847e-17 
8636.50 7.2805e-17 
8638.00 6.5101e-17 
8639.50 8.8009e-17 
8641.00 6.8214e-17 
8642.50 5.9368e-17 
8644.00 6.0608e-17 
8645.50 8.5015e-17 
8647.00 7.4340e-17 
8648.50 7.0257e-17 
8650.00 7.0531e-17 
8651.50 6.4456e-17 
8653.00 7.7791e-17 
8654.50 7.5342e-17 
8656.00 6.3094e-17 
8657.50 5.5305e-17 
8659.00 7.0405e-17 
8660.50 6.7578e-17 
8662.00 5.8513e-17 
8663.50 9.4199e-17 
8665.00 6.9554e-17 
8666.50 6.4498e-17 
8668.00 6.9186e-17 
8669.50 7.0128e-17 
8671.00 6.1100e-17 
8672.50 6.5701e-17 
8674.00 7.6156e-17 
8675.50 7.8026e-17 
8677.00 6.2797e-17 
8678.50 6.5938e-17 
8680.00 7.4164e-17 
8681.50 5.2643e-17 
8683.00 5.0596e-17 
8684.50 5.7523e-17 
8686.00 6.8527e-17 
8687.50 7.7983e-17 
8689.00 6.8229e-17 
8690.50 6.8477e-17 
8692.00 7.2403e-17 
8693.50 6.8973e-17 
8695.00 7.4715e-17 
8696.50 6.7884e-17 
8698.00 5.7996e-17 
8699.50 7.5116e-17 
8701.00 6.3688e-17 
8702.50 6.6921e-17 
8704.00 7.6385e-17 
8705.50 7.5832e-17 
8707.00 7.3897e-17 
8708.50 7.5936e-17 
8710.00 7.8394e-17 
8711.50 6.1106e-17 
8713.00 7.0114e-17 
8714.50 6.9061e-17 
8716.00 6.3308e-17 
8717.50 7.3792e-17 
8719.00 7.8228e-17 
8720.50 7.5501e-17 
8722.00 6.7991e-17 
8723.50 5.8808e-17 
8725.00 6.5434e-17 
8726.50 7.1230e-17 
8728.00 7.6474e-17 
8729.50 7.5913e-17 
8731.00 7.1707e-17 
8732.50 7.2758e-17 
8734.00 7.8222e-17 
8735.50 6.7494e-17 
8737.00 7.8947e-17 
8738.50 7.9088e-17 
8740.00 6.7401e-17 
8741.50 6.3581e-17 
8743.00 6.9300e-17 
8744.50 7.2695e-17 
8746.00 7.3035e-17 
8747.50 7.0961e-17 
8749.00 6.1264e-17 
8750.50 5.4467e-17 
8752.00 5.2413e-17 
8753.50 6.5304e-17 
8755.00 6.9018e-17 
8756.50 7.1249e-17 
8758.00 7.2218e-17 
8759.50 6.8606e-17 
8761.00 5.5847e-17 
8762.50 4.5192e-17 
8764.00 4.3259e-17 
8765.50 6.0998e-17 
8767.00 6.0830e-17 
8768.50 5.0572e-17 
8770.00 1.4013e-17 
8771.50 8.2586e-17 
8773.00 7.8402e-17 
8774.50 5.9905e-17 
8776.00 7.8487e-17 
8777.50 5.1087e-17 
8779.00 5.9433e-17 
8780.50 8.5284e-17 
8782.00 1.3807e-16 
8783.50 7.7872e-17 
8785.00 5.9269e-17 
8786.50 6.3865e-17 
8788.00 6.7044e-17 
8789.50 7.7483e-17 
8791.00 7.4304e-17 
8792.50 5.9224e-17 
8794.00 9.3777e-17 
8795.50 7.0949e-17 
8797.00 6.6279e-17 
8798.50 8.6130e-17 
8800.00 5.6250e-17 
8801.50 6.4454e-17 
8803.00 6.8433e-17 
8804.50 5.8752e-17 
8806.00 7.5143e-17 
8807.50 7.4625e-17 
8809.00 6.8706e-17 
8810.50 5.2363e-17 
8812.00 6.5294e-17 
8813.50 5.9567e-17 
8815.00 5.3819e-17 
8816.50 7.7373e-17 
8818.00 6.9514e-17 
8819.50 5.8348e-17 
8821.00 4.7267e-17 
8822.50 6.3883e-17 
8824.00 7.6754e-17 
8825.50 7.8319e-17 
8827.00 7.1619e-17 
8828.50 4.3238e-18 
8830.00 6.5511e-17 
8831.50 8.3603e-17 
8833.00 4.5155e-17 
8834.50 5.7714e-17 
8836.00 7.4132e-17 
8837.50 6.9204e-17 
8839.00 1.2028e-17 
8840.50 1.1766e-16 
8842.00 7.8974e-17 
8843.50 3.2282e-17 
8845.00 7.2668e-17 
8846.50 7.4971e-17 
8848.00 7.7818e-17 
8849.50 7.7940e-17 
8851.00 4.3956e-17 
8852.50 6.6232e-17 
8854.00 7.1856e-17 
8855.50 6.6188e-17 
8857.00 7.0622e-17 
8858.50 5.8838e-17 
8860.00 5.2532e-17 
8861.50 5.3532e-17 
8863.00 5.5230e-17 
8864.50 6.6385e-17 
8866.00 7.4813e-17 
8867.50 7.3672e-17 
8869.00 2.7090e-17 
8870.50 6.9190e-17 
8872.00 1.1701e-16 
8873.50 4.5231e-17 
8875.00 6.7436e-17 
8876.50 7.0679e-17 
8878.00 6.4360e-17 
8879.50 7.4025e-17 
8881.00 5.3510e-17 
8882.50 5.0669e-17 
8884.00 6.8586e-17 
8885.50 6.5795e-17 
8887.00 6.5859e-17 
8888.50 7.2948e-17 
8890.00 9.9587e-17 
8891.50 7.4780e-17 
8893.00 6.5786e-17 
8894.50 6.2234e-17 
8896.00 7.1975e-17 
8897.50 6.7305e-17 
8899.00 6.6064e-17 
8900.50 6.6771e-17 
8902.00 7.7083e-17 
8903.50 5.3769e-17 
8905.00 5.3361e-17 
8906.50 8.5086e-17 
8908.00 6.7048e-17 
8909.50 6.8830e-17 
8911.00 6.7672e-17 
8912.50 4.8780e-17 
8914.00 5.1928e-17 
8915.50 5.9311e-17 
8917.00 6.9836e-17 
8918.50 9.7077e-17 
8920.00 2.2527e-17 
8921.50 3.8129e-17 
8923.00 1.3271e-16 
8924.50 6.7786e-17 
8926.00 4.2572e-17 
8927.50 3.9406e-17 
8929.00 8.2284e-17 
8930.50 7.0743e-17 
8932.00 6.6460e-17 
8933.50 6.3856e-17 
8935.00 6.2782e-17 
8936.50 5.3404e-17 
8938.00 5.5064e-17 
8939.50 6.3601e-17 
8941.00 4.5075e-17 
8942.50 6.2451e-17 
8944.00 7.1570e-17 
8945.50 6.7257e-17 
8947.00 6.0897e-17 
8948.50 5.2259e-17 
8950.00 4.6705e-17 
8951.50 6.0883e-17 
8953.00 7.1174e-17 
8954.50 6.6362e-17 
8956.00 5.3439e-17 
8957.50 9.1064e-17 
8959.00 7.2150e-17 
8960.50 7.8227e-17 
8962.00 1.2811e-16 
8963.50 8.1724e-17 
8965.00 5.8039e-17 
8966.50 4.2076e-17 
8968.00 4.9977e-17 
8969.50 4.6691e-17 
8971.00 5.3888e-17 
8972.50 6.7751e-17 
8974.00 5.5984e-17 
8975.50 5.8118e-17 
8977.00 6.1313e-17 
8978.50 6.7170e-17 
8980.00 5.5674e-17 
8981.50 4.7571e-17 
8983.00 4.3473e-17 
8984.50 6.4991e-17 
8986.00 5.3049e-17 
8987.50 4.8621e-17 
8989.00 4.8742e-17 
8990.50 1.8369e-17 
8992.00 6.5988e-17 
8993.50 9.2798e-17 
8995.00 6.3692e-17 
8996.50 6.5241e-17 
8998.00 5.8070e-17 
8999.50 5.0838e-17 
9001.00 8.2213e-17 
9002.50 6.1793e-18 
9004.00 2.6255e-18 
9005.50 7.7583e-17 
9007.00 4.9570e-17 
9008.50 5.5855e-17 
9010.00 6.4454e-17 
9011.50 6.9363e-17 
9013.00 6.8464e-17 
9014.50 6.4318e-17 
9016.00 5.8130e-17 
9017.50 7.4741e-17 
9019.00 7.2522e-17 
9020.50 6.8545e-17 
9022.00 5.9921e-17 
9023.50 4.8327e-17 
9025.00 4.6634e-17 
9026.50 4.7501e-17 
9028.00 5.2090e-17 
9029.50 5.8404e-17 
9031.00 6.2423e-17 
9032.50 6.5143e-17 
9034.00 7.2030e-17 
9035.50 6.2925e-17 
9037.00 5.5263e-17 
9038.50 6.1068e-17 
9040.00 5.3529e-17 
9041.50 4.5910e-17 
9043.00 3.7011e-17 
9044.50 6.0372e-17 
9046.00 5.5813e-17 
9047.50 5.3260e-17 
9049.00 5.6841e-17 
9050.50 5.4470e-17 
9052.00 6.1697e-17 
9053.50 7.1068e-17 
9055.00 3.8447e-17 
9056.50 5.3394e-17 
9058.00 6.1438e-17 
9059.50 6.0931e-17 
9061.00 6.6442e-17 
9062.50 7.2572e-17 
9064.00 7.6591e-17 
9065.50 5.5447e-17 
9067.00 5.3488e-17 
9068.50 5.7531e-17 
9070.00 6.9196e-17 
9071.50 5.9273e-17 
9073.00 6.4749e-17 
9074.50 7.1985e-17 
9076.00 7.9735e-17 
9077.50 6.6993e-17 
9079.00 5.8964e-17 
9080.50 5.2476e-17 
9082.00 5.9173e-17 
9083.50 6.7195e-17 
9085.00 7.2002e-17 
9086.50 6.3252e-17 
9088.00 6.2616e-17 
9089.50 5.7361e-17 
9091.00 4.8410e-17 
9092.50 4.6587e-17 
9094.00 5.0419e-17 
9095.50 6.1442e-17 
9097.00 1.0012e-16 
9098.50 6.6674e-17 
9100.00 6.3738e-17 
9101.50 7.4749e-17 
9103.00 8.3378e-17 
9104.50 7.8096e-17 
9106.00 7.0847e-17 
9107.50 5.6118e-17 
9109.00 6.0591e-17 
9110.50 6.3613e-17 
9112.00 6.6465e-17 
9113.50 5.7002e-17 
9115.00 6.5265e-17 
9116.50 6.8778e-17 
9118.00 5.9607e-17 
9119.50 6.7534e-17 
9121.00 6.8926e-17 
9122.50 6.7919e-17 
9124.00 5.7496e-17 
9125.50 6.3232e-17 
9127.00 6.7915e-17 
9128.50 7.0898e-17 
9130.00 6.9832e-17 
9131.50 6.6641e-17 
9133.00 6.2105e-17 
9134.50 8.0994e-17 
9136.00 8.1421e-17 
9137.50 7.9689e-17 
9139.00 7.1342e-17 
9140.50 8.4021e-17 
9142.00 7.3544e-17 
9143.50 5.0244e-17 
9145.00 8.2310e-17 
9146.50 6.5688e-17 
9148.00 5.6529e-17 
9149.50 7.6931e-17 
9151.00 4.4615e-17 
9152.50 3.7560e-17 
9154.00 4.3183e-17 
9155.50 5.0866e-17 
9157.00 5.1343e-17 
9158.50 5.4052e-17 
9160.00 7.0484e-17 
9161.50 6.0128e-17 
9163.00 5.7387e-17 
9164.50 5.9470e-17 
9166.00 6.1249e-17 
9167.50 5.3381e-17 
9169.00 4.8893e-17 
9170.50 7.5393e-17 
9172.00 6.9486e-17 
9173.50 6.4574e-17 
9175.00 5.8792e-17 
9176.50 5.0072e-17 
9178.00 5.7000e-17 
9179.50 6.6205e-17 
9181.00 6.8969e-17 
9182.50 7.1347e-17 
9184.00 6.9094e-17 
9185.50 5.8253e-17 
9187.00 7.2288e-17 
9188.50 6.5211e-17 
9190.00 0
9191.50 0
9193.00 0
9194.50 0
9196.00 0
9197.50 0
9199.00 0
9200.50 0
9202.00 0
9203.50 0
9205.00 0
9206.50 0
9208.00 0
9209.50 0
9211.00 0
9212.50 0
9214.00 0
9215.50 0
9217.00 0
9218.50 0
9220.00 0
9221.50 0
9223.00 0
9224.50 0
9226.00 0
9227.50 0
9229.00 0
9230.50 0
9232.00 0
9233.50 0
9235.00 0
9236.50 0
9238.00 0
9239.50 0
9241.00 0
9242.50 0
9244.00 0
9245.50 0
9247.00 0
9248.50 0
9250.00 0
9251.50 0
9253.00 0
9254.50 0
9256.00 0
9257.50 0
9259.00 0
9260.50 0
9262.00 0
9263.50 0
9265.00 0
9266.50 0
9268.00 0
9269.50 0
9271.00 0
9272.50 0
9274.00 0
9275.50 0
9277.00 0
9278.50 0
9280.00 0
9281.50 0
9283.00 0
9284.50 0
9286.00 0
9287.50 0
9289.00 0
9290.50 0
9292.00 0
9293.50 0
9295.00 0
9296.50 0
9298.00 0
9299.50 0
9301.00 0
9302.50 0
9304.00 0
9305.50 0
9307.00 0
9308.50 0
9310.00 0
9311.50 0
9313.00 0
9314.50 0
9316.00 0
9317.50 0
9319.00 0
9320.50 0
9322.00 0
9323.50 0
9325.00 0
9326.50 0
9328.00 0
9329.50 0
9331.00 0
9332.50 0
9334.00 0
9335.50 0
9337.00 0
9338.50 0
9340.00 0
9341.50 0
9343.00 0
9344.50 0
9346.00 0
9347.50 0
9349.00 0
9350.50 0
9352.00 0
9353.50 0
9355.00 0
9356.50 0
9358.00 0
9359.50 0
9361.00 0
9362.50 0
9364.00 0
9365.50 0
9367.00 0
9368.50 0
9370.00 0
9371.50 0
9373.00 0
9374.50 0
9376.00 0
9377.50 0
9379.00 0
9380.50 0
9382.00 0
9383.50 0
9385.00 0
9386.50 0
9388.00 0
9389.50 0
9391.00 0
9392.50 0
9394.00 0
9395.50 0
9397.00 0
9398.50 0
9400.00 0
9401.50 0
9403.00 0
9404.50 0
9406.00 0
9407.50 0
9409.00 0
9410.50 0
9412.00 0
9413.50 0
9415.00 0
9416.50 0
9418.00 0
9419.50 0
9421.00 0
9422.50 0
9424.00 0
9425.50 0
9427.00 0
9428.50 0
9430.00 0
9431.50 0
9433.00 0
9434.50 0
9436.00 0
9437.50 0
9439.00 0
9440.50 0
9442.00 0
9443.50 0
9445.00 0
9446.50 0
9448.00 0
9449.50 0
9451.00 0
9452.50 0
9454.00 0
9455.50 0
9457.00 0
9458.50 0
9460.00 0
9461.50 0
9463.00 0
9464.50 0
9466.00 0
9467.50 0
9469.00 0
9470.50 0
9472.00 0
9473.50 0
9475.00 0
9476.50 0
9478.00 0
9479.50 0
9481.00 0
9482.50 0
9484.00 0
9485.50 0
9487.00 0
9488.50 0
9490.00 0
9491.50 0
9493.00 0
9494.50 0
9496.00 0
9497.50 0
9499.00 0
9500.50 0
9502.00 0
9503.50 0
9505.00 0
9506.50 0
9508.00 0
9509.50 0
9511.00 0
9512.50 0
9514.00 0
9515.50 0
9517.00 0
9518.50 0
9520.00 0
9521.50 0
9523.00 0
9524.50 0
9526.00 0
9527.50 0
9529.00 0
9530.50 0
9532.00 0
9533.50 0
9535.00 0
9536.50 0
9538.00 0
9539.50 0
9541.00 0
9542.50 0
9544.00 0
9545.50 0
9547.00 0
9548.50 0
9550.00 0
9551.50 0
9553.00 0
9554.50 0
9556.00 0
9557.50 0
9559.00 0
9560.50 0
9562.00 0
9563.50 0
9565.00 0
9566.50 0
9568.00 0
9569.50 0
9571.00 0
9572.50 0
9574.00 0
9575.50 0
9577.00 0
9578.50 0
9580.00 0
9581.50 0
9583.00 0
9584.50 0
9586.00 0
9587.50 0
9589.00 0
9590.50 0
9592.00 0
9593.50 0
9595.00 0
9596.50 0
9598.00 0
9599.50 0
