Wavelength (Angstroms) Flux (erg/s/cm2/A)
# start
3400.00 0
3401.50 0
3403.00 0
3404.50 0
3406.00 0
3407.50 0
3409.00 0
3410.50 0
3412.00 0
3413.50 0
3415.00 0
3416.50 0
3418.00 0
3419.50 0
3421.00 0
3422.50 0
3424.00 0
3425.50 0
3427.00 0
3428.50 0
3430.00 0
3431.50 0
3433.00 0
3434.50 0
3436.00 0
3437.50 0
3439.00 0
3440.50 0
3442.00 0
3443.50 0
3445.00 0
3446.50 0
3448.00 0
3449.50 0
3451.00 0
3452.50 0
3454.00 0
3455.50 0
3457.00 0
3458.50 0
3460.00 0
3461.50 0
3463.00 0
3464.50 0
3466.00 0
3467.50 0
3469.00 0
3470.50 0
3472.00 0
3473.50 0
3475.00 0
3476.50 0
3478.00 0
3479.50 0
3481.00 0
3482.50 0
3484.00 0
3485.50 0
3487.00 0
3488.50 0
3490.00 0
3491.50 0
3493.00 0
3494.50 0
3496.00 0
3497.50 0
3499.00 0
3500.50 0
3502.00 0
3503.50 0
3505.00 0
3506.50 0
3508.00 0
3509.50 0
3511.00 0
3512.50 0
3514.00 0
3515.50 0
3517.00 0
3518.50 0
3520.00 0
3521.50 0
3523.00 0
3524.50 0
3526.00 0
3527.50 0
3529.00 0
3530.50 0
3532.00 0
3533.50 0
3535.00 0
3536.50 0
3538.00 0
3539.50 0
3541.00 0
3542.50 0
3544.00 0
3545.50 0
3547.00 0
3548.50 0
3550.00 0
3551.50 0
3553.00 0
3554.50 0
3556.00 0
3557.50 0
3559.00 0
3560.50 0
3562.00 0
3563.50 0
3565.00 0
3566.50 0
3568.00 0
3569.50 0
3571.00 0
3572.50 0
3574.00 0
3575.50 0
3577.00 0
3578.50 0
3580.00 0
3581.50 0
3583.00 0
3584.50 0
3586.00 0
3587.50 0
3589.00 0
3590.50 0
3592.00 0
3593.50 0
3595.00 0
3596.50 0
3598.00 0
3599.50 0
3601.00 0
3602.50 0
3604.00 0
3605.50 0
3607.00 0
3608.50 0
3610.00 0
3611.50 0
3613.00 0
3614.50 0
3616.00 0
3617.50 0
3619.00 0
3620.50 0
3622.00 0
3623.50 0
3625.00 0
3626.50 0
3628.00 0
3629.50 0
3631.00 0
3632.50 0
3634.00 0
3635.50 0
3637.00 0
3638.50 0
3640.00 0
3641.50 0
3643.00 0
3644.50 0
3646.00 0
3647.50 0
3649.00 0
3650.50 0
3652.00 0
3653.50 0
3655.00 0
3656.50 0
3658.00 0
3659.50 0
3661.00 0
3662.50 0
3664.00 0
3665.50 0
3667.00 0
3668.50 0
3670.00 0
3671.50 0
3673.00 0
3674.50 0
3676.00 0
3677.50 0
3679.00 0
3680.50 0
3682.00 0
3683.50 0
3685.00 0
3686.50 0
3688.00 0
3689.50 0
3691.00 0
3692.50 0
3694.00 0
3695.50 0
3697.00 0
3698.50 0
3700.00 0
3701.50 0
3703.00 0
3704.50 0
3706.00 0
3707.50 0
3709.00 0
3710.50 0
3712.00 0
3713.50 0
3715.00 0
3716.50 0
3718.00 0
3719.50 0
3721.00 0
3722.50 0
3724.00 0
3725.50 0
3727.00 0
3728.50 0
3730.00 0
3731.50 0
3733.00 0
3734.50 0
3736.00 0
3737.50 0
3739.00 0
3740.50 0
3742.00 0
3743.50 0
3745.00 0
3746.50 0
3748.00 0
3749.50 0
3751.00 0
3752.50 0
3754.00 0
3755.50 0
3757.00 0
3758.50 0
3760.00 0
3761.50 0
3763.00 0
3764.50 0
3766.00 0
3767.50 0
3769.00 0
3770.50 0
3772.00 0
3773.50 0
3775.00 0
3776.50 0
3778.00 0
3779.50 0
3781.00 0
3782.50 0
3784.00 0
3785.50 0
3787.00 0
3788.50 0
3790.00 0
3791.50 0
3793.00 0
3794.50 0
3796.00 0
3797.50 0
3799.00 0
3800.50 7.3054e-17 
3802.00 1.2038e-16 
3803.50 9.8671e-17 
3805.00 1.3467e-16 
3806.50 1.1818e-16 
3808.00 1.0145e-16 
3809.50 1.3860e-16 
3811.00 9.5753e-17 
3812.50 1.3940e-16 
3814.00 1.5597e-16 
3815.50 1.5465e-16 
3817.00 9.4377e-17 
3818.50 1.2045e-16 
3820.00 9.1053e-17 
3821.50 6.7300e-17 
3823.00 1.4155e-16 
3824.50 9.8757e-17 
3826.00 1.4530e-16 
3827.50 9.8252e-17 
3829.00 1.1431e-16 
3830.50 1.6869e-16 
3832.00 1.7210e-16 
3833.50 1.7362e-16 
3835.00 1.0900e-16 
3836.50 1.0474e-16 
3838.00 1.4560e-16 
3839.50 1.0328e-16 
3841.00 8.6999e-17 
3842.50 1.1193e-16 
3844.00 8.6051e-17 
3845.50 1.0613e-16 
3847.00 6.5645e-17 
3848.50 1.1798e-16 
3850.00 1.2465e-16 
3851.50 1.1071e-16 
3853.00 1.2942e-16 
3854.50 1.0405e-16 
3856.00 8.8255e-17 
3857.50 9.9971e-17 
3859.00 1.2916e-16 
3860.50 1.0353e-16 
3862.00 1.0311e-16 
3863.50 1.1574e-16 
3865.00 1.3029e-16 
3866.50 1.0482e-16 
3868.00 1.0060e-16 
3869.50 1.0705e-16 
3871.00 4.3194e-17 
3872.50 6.9582e-17 
3874.00 8.8686e-17 
3875.50 1.0444e-16 
3877.00 1.2467e-16 
3878.50 1.4100e-16 
3880.00 6.7488e-17 
3881.50 7.5908e-17 
3883.00 1.0512e-16 
3884.50 1.0878e-16 
3886.00 8.8670e-17 
3887.50 1.0712e-16 
3889.00 5.2882e-17 
3890.50 9.6498e-17 
3892.00 7.2975e-17 
3893.50 8.1117e-17 
3895.00 1.1726e-16 
3896.50 9.5012e-17 
3898.00 1.1665e-16 
3899.50 6.7838e-17 
3901.00 6.7940e-17 
3902.50 8.6699e-17 
3904.00 1.1431e-16 
3905.50 7.6896e-17 
3907.00 9.3703e-17 
3908.50 8.6676e-17 
3910.00 8.2591e-17 
3911.50 1.0114e-16 
3913.00 9.7876e-17 
3914.50 8.3828e-17 
3916.00 5.5302e-17 
3917.50 7.5286e-17 
3919.00 6.2400e-17 
3920.50 6.5713e-17 
3922.00 5.3554e-17 
3923.50 9.2854e-17 
3925.00 1.2591e-16 
3926.50 4.8480e-17 
3928.00 6.7476e-17 
3929.50 6.4259e-17 
3931.00 5.9514e-17 
3932.50 7.3027e-17 
3934.00 7.8199e-17 
3935.50 5.2730e-17 
3937.00 1.1339e-16 
3938.50 8.4171e-17 
3940.00 7.9045e-17 
3941.50 9.4271e-17 
3943.00 8.2331e-17 
3944.50 9.0719e-17 
3946.00 9.0252e-17 
3947.50 6.4243e-17 
3949.00 7.1546e-17 
3950.50 5.9155e-17 
3952.00 3.6455e-17 
3953.50 8.6001e-17 
3955.00 9.0747e-17 
3956.50 7.9510e-17 
3958.00 8.3101e-17 
3959.50 5.2810e-17 
3961.00 5.7099e-17 
3962.50 9.6565e-17 
3964.00 8.6052e-17 
3965.50 8.4099e-17 
3967.00 6.1518e-17 
3968.50 6.3947e-17 
3970.00 8.6662e-17 
3971.50 9.9055e-17 
3973.00 4.8947e-17 
3974.50 6.5456e-17 
3976.00 7.7206e-17 
3977.50 9.9673e-17 
3979.00 4.6624e-17 
3980.50 7.8284e-17 
3982.00 1.0963e-16 
3983.50 9.7323e-17 
3985.00 8.2924e-17 
3986.50 4.9668e-17 
3988.00 6.1935e-17 
3989.50 9.6993e-17 
3991.00 8.5134e-17 
3992.50 8.1319e-17 
3994.00 1.1660e-16 
3995.50 8.9446e-17 
3997.00 6.2726e-17 
3998.50 5.9989e-17 
4000.00 9.0717e-17 
4001.50 7.0989e-17 
4003.00 8.6754e-17 
4004.50 6.9690e-17 
4006.00 9.6925e-17 
4007.50 7.3024e-17 
4009.00 4.9684e-17 
4010.50 8.2304e-17 
4012.00 6.5872e-17 
4013.50 6.9755e-17 
4015.00 7.2441e-17 
4016.50 8.5180e-17 
4018.00 1.0675e-16 
4019.50 1.0863e-16 
4021.00 1.1017e-16 
4022.50 9.0742e-17 
4024.00 7.1869e-17 
4025.50 8.7926e-17 
4027.00 7.7080e-17 
4028.50 8.3464e-17 
4030.00 8.3781e-17 
4031.50 5.8381e-17 
4033.00 8.2087e-17 
4034.50 8.3187e-17 
4036.00 6.1259e-17 
4037.50 6.7699e-17 
4039.00 9.0516e-17 
4040.50 8.7546e-17 
4042.00 9.6269e-17 
4043.50 7.8234e-17 
4045.00 1.0399e-16 
4046.50 9.4877e-17 
4048.00 7.9104e-17 
4049.50 7.0469e-17 
4051.00 8.7691e-17 
4052.50 9.2323e-17 
4054.00 6.0013e-17 
4055.50 4.1848e-17 
4057.00 8.3257e-17 
4058.50 8.8996e-17 
4060.00 9.6225e-17 
4061.50 9.4075e-17 
4063.00 7.7822e-17 
4064.50 6.5309e-17 
4066.00 7.3261e-17 
4067.50 7.8477e-17 
4069.00 5.6769e-17 
4070.50 6.3878e-17 
4072.00 7.1975e-17 
4073.50 6.8353e-17 
4075.00 8.7308e-17 
4076.50 9.0553e-17 
4078.00 6.9224e-17 
4079.50 6.2849e-17 
4081.00 5.4662e-17 
4082.50 7.4551e-17 
4084.00 8.5354e-17 
4085.50 7.8450e-17 
4087.00 7.6149e-17 
4088.50 5.0338e-17 
4090.00 8.5271e-17 
4091.50 1.0708e-16 
4093.00 1.0806e-16 
4094.50 9.6155e-17 
4096.00 6.0774e-17 
4097.50 5.5237e-17 
4099.00 5.6147e-17 
4100.50 5.7654e-17 
4102.00 5.9011e-17 
4103.50 6.0416e-17 
4105.00 6.1869e-17 
4106.50 6.3181e-17 
4108.00 6.4718e-17 
4109.50 6.6033e-17 
4111.00 6.7471e-17 
4112.50 6.8879e-17 
4114.00 7.0220e-17 
4115.50 7.1721e-17 
4117.00 7.3023e-17 
4118.50 7.4501e-17 
4120.00 7.5856e-17 
4121.50 7.7243e-17 
4123.00 7.8686e-17 
4124.50 7.9981e-17 
4126.00 8.1509e-17 
4127.50 8.2803e-17 
4129.00 8.4241e-17 
4130.50 8.5621e-17 
4132.00 8.6970e-17 
4133.50 7.1978e-17 
4135.00 7.2078e-17 
4136.50 6.3743e-17 
4138.00 6.7466e-17 
4139.50 5.6894e-17 
4141.00 6.8756e-17 
4142.50 8.2098e-17 
4144.00 6.9545e-17 
4145.50 1.0283e-16 
4147.00 8.3543e-17 
4148.50 8.5010e-17 
4150.00 7.6479e-17 
4151.50 8.9271e-17 
4153.00 9.3362e-17 
4154.50 6.5526e-17 
4156.00 6.6228e-17 
4157.50 1.0108e-16 
4159.00 9.7524e-17 
4160.50 8.7161e-17 
4162.00 7.1613e-17 
4163.50 8.6722e-17 
4165.00 1.1080e-16 
4166.50 8.3104e-17 
4168.00 7.1798e-17 
4169.50 7.6036e-17 
4171.00 8.0784e-17 
4172.50 7.5784e-17 
4174.00 6.2560e-17 
4175.50 1.0782e-16 
4177.00 8.8643e-17 
4178.50 8.6823e-17 
4180.00 7.4830e-17 
4181.50 1.3525e-16 
4183.00 1.0303e-16 
4184.50 7.6877e-17 
4186.00 9.2908e-17 
4187.50 7.4282e-17 
4189.00 7.4464e-17 
4190.50 1.1263e-16 
4192.00 1.0668e-16 
4193.50 8.7605e-17 
4195.00 1.0684e-16 
4196.50 1.1079e-16 
4198.00 7.2457e-17 
4199.50 1.1406e-16 
4201.00 9.7316e-17 
4202.50 1.0217e-16 
4204.00 1.0863e-16 
4205.50 8.7483e-17 
4207.00 1.1019e-16 
4208.50 1.3419e-16 
4210.00 1.2209e-16 
4211.50 1.1052e-16 
4213.00 9.6465e-17 
4214.50 9.1139e-17 
4216.00 1.3047e-16 
4217.50 1.1282e-16 
4219.00 1.1334e-16 
4220.50 1.3554e-16 
4222.00 1.2760e-16 
4223.50 1.1573e-16 
4225.00 1.2832e-16 
4226.50 1.6470e-16 
4228.00 1.5355e-16 
4229.50 1.2804e-16 
4231.00 1.3424e-16 
4232.50 1.3312e-16 
4234.00 1.3880e-16 
4235.50 1.2545e-16 
4237.00 1.2454e-16 
4238.50 1.3421e-16 
4240.00 1.4660e-16 
4241.50 1.2186e-16 
4243.00 1.1930e-16 
4244.50 1.3694e-16 
4246.00 1.2240e-16 
4247.50 1.1247e-16 
4249.00 1.2516e-16 
4250.50 1.3944e-16 
4252.00 1.3497e-16 
4253.50 1.2236e-16 
4255.00 1.2443e-16 
4256.50 1.1014e-16 
4258.00 1.1609e-16 
4259.50 1.2495e-16 
4261.00 1.0464e-16 
4262.50 9.8555e-17 
4264.00 1.1536e-16 
4265.50 1.3802e-16 
4267.00 1.2867e-16 
4268.50 1.1276e-16 
4270.00 1.0203e-16 
4271.50 1.0792e-16 
4273.00 1.1375e-16 
4274.50 9.3429e-17 
4276.00 1.0000e-16 
4277.50 1.1725e-16 
4279.00 9.4260e-17 
4280.50 1.2306e-16 
4282.00 1.3276e-16 
4283.50 1.2327e-16 
4285.00 9.6146e-17 
4286.50 1.0312e-16 
4288.00 1.0709e-16 
4289.50 7.9279e-17 
4291.00 1.0268e-16 
4292.50 9.4752e-17 
4294.00 1.1172e-16 
4295.50 1.0081e-16 
4297.00 9.5553e-17 
4298.50 1.1998e-16 
4300.00 9.6410e-17 
4301.50 1.0815e-16 
4303.00 8.8840e-17 
4304.50 9.7959e-17 
4306.00 9.8441e-17 
4307.50 7.8205e-17 
4309.00 7.4790e-17 
4310.50 9.3707e-17 
4312.00 1.0796e-16 
4313.50 1.0703e-16 
4315.00 8.1347e-17 
4316.50 8.0371e-17 
4318.00 8.0032e-17 
4319.50 6.7137e-17 
4321.00 7.5326e-17 
4322.50 6.4208e-17 
4324.00 7.6193e-17 
4325.50 8.1627e-17 
4327.00 7.9992e-17 
4328.50 8.1707e-17 
4330.00 8.5337e-17 
4331.50 8.2274e-17 
4333.00 7.6494e-17 
4334.50 8.4382e-17 
4336.00 7.9808e-17 
4337.50 9.7494e-17 
4339.00 9.0364e-17 
4340.50 8.0245e-17 
4342.00 1.0303e-16 
4343.50 9.0790e-17 
4345.00 8.2576e-17 
4346.50 7.5957e-17 
4348.00 7.1356e-17 
4349.50 5.9955e-17 
4351.00 8.1590e-17 
4352.50 9.0726e-17 
4354.00 8.4933e-17 
4355.50 7.4691e-17 
4357.00 7.5925e-17 
4358.50 1.0070e-16 
4360.00 1.1099e-16 
4361.50 8.1659e-17 
4363.00 7.1782e-17 
4364.50 8.0154e-17 
4366.00 7.6912e-17 
4367.50 6.8485e-17 
4369.00 8.7878e-17 
4370.50 6.3102e-17 
4372.00 7.4846e-17 
4373.50 9.4537e-17 
4375.00 7.9976e-17 
4376.50 8.6859e-17 
4378.00 6.8404e-17 
4379.50 7.5133e-17 
4381.00 7.4902e-17 
4382.50 8.4596e-17 
4384.00 7.2998e-17 
4385.50 8.6438e-17 
4387.00 8.2216e-17 
4388.50 7.3321e-17 
4390.00 8.7743e-17 
4391.50 8.2387e-17 
4393.00 7.3737e-17 
4394.50 6.8727e-17 
4396.00 7.3542e-17 
4397.50 7.7158e-17 
4399.00 8.0852e-17 
4400.50 1.0310e-16 
4402.00 6.5036e-17 
4403.50 6.9683e-17 
4405.00 6.4239e-17 
4406.50 6.6287e-17 
4408.00 7.4054e-17 
4409.50 5.3395e-17 
4411.00 8.0220e-17 
4412.50 8.2512e-17 
4414.00 6.5783e-17 
4415.50 7.0636e-17 
4417.00 6.1149e-17 
4418.50 6.3959e-17 
4420.00 6.2260e-17 
4421.50 6.4561e-17 
4423.00 7.1252e-17 
4424.50 5.5121e-17 
4426.00 7.8278e-17 
4427.50 1.1764e-16 
4429.00 8.9026e-17 
4430.50 6.3095e-17 
4432.00 5.7101e-17 
4433.50 7.1057e-17 
4435.00 7.0541e-17 
4436.50 8.2095e-17 
4438.00 9.0458e-17 
4439.50 8.1245e-17 
4441.00 8.4967e-17 
4442.50 6.7008e-17 
4444.00 6.2543e-17 
4445.50 6.2425e-17 
4447.00 6.1383e-17 
4448.50 6.6698e-17 
4450.00 5.8827e-17 
4451.50 6.1979e-17 
4453.00 6.5972e-17 
4454.50 6.1426e-17 
4456.00 6.3895e-17 
4457.50 5.4777e-17 
4459.00 5.4241e-17 
4460.50 5.6589e-17 
4462.00 7.1738e-17 
4463.50 7.9212e-17 
4465.00 7.9355e-17 
4466.50 7.2935e-17 
4468.00 6.8933e-17 
4469.50 7.0597e-17 
4471.00 8.0273e-17 
4472.50 6.8671e-17 
4474.00 6.2386e-17 
4475.50 6.4932e-17 
4477.00 5.9396e-17 
4478.50 5.5853e-17 
4480.00 8.8935e-17 
4481.50 6.7681e-17 
4483.00 6.7559e-17 
4484.50 6.1787e-17 
4486.00 7.3412e-17 
4487.50 6.4253e-17 
4489.00 8.0291e-17 
4490.50 8.7175e-17 
4492.00 6.7807e-17 
4493.50 7.1810e-17 
4495.00 6.6007e-17 
4496.50 6.9966e-17 
4498.00 7.0856e-17 
4499.50 7.0551e-17 
4501.00 8.0577e-17 
4502.50 7.8153e-17 
4504.00 6.8613e-17 
4505.50 7.4077e-17 
4507.00 8.0684e-17 
4508.50 6.1589e-17 
4510.00 6.6799e-17 
4511.50 6.3341e-17 
4513.00 6.9631e-17 
4514.50 7.2739e-17 
4516.00 6.7468e-17 
4517.50 8.4893e-17 
4519.00 6.5212e-17 
4520.50 7.3386e-17 
4522.00 6.9403e-17 
4523.50 7.4767e-17 
4525.00 7.0405e-17 
4526.50 8.3236e-17 
4528.00 6.8810e-17 
4529.50 6.5141e-17 
4531.00 6.0898e-17 
4532.50 8.1088e-17 
4534.00 7.1829e-17 
4535.50 6.5369e-17 
4537.00 7.2668e-17 
4538.50 9.1659e-17 
4540.00 7.4057e-17 
4541.50 6.8331e-17 
4543.00 7.6309e-17 
4544.50 6.9217e-17 
4546.00 7.1602e-17 
4547.50 8.0783e-17 
4549.00 5.7290e-17 
4550.50 7.2710e-17 
4552.00 7.3262e-17 
4553.50 7.0686e-17 
4555.00 7.5477e-17 
4556.50 5.3852e-17 
4558.00 7.0465e-17 
4559.50 5.6469e-17 
4561.00 6.7379e-17 
4562.50 6.1890e-17 
4564.00 8.1680e-17 
4565.50 7.5160e-17 
4567.00 7.8029e-17 
4568.50 7.1755e-17 
4570.00 7.0145e-17 
4571.50 5.5447e-17 
4573.00 6.8821e-17 
4574.50 6.4785e-17 
4576.00 5.3041e-17 
4577.50 6.7091e-17 
4579.00 7.6089e-17 
4580.50 6.9174e-17 
4582.00 6.8286e-17 
4583.50 7.3119e-17 
4585.00 6.5025e-17 
4586.50 7.5404e-17 
4588.00 6.7796e-17 
4589.50 5.9421e-17 
4591.00 6.5270e-17 
4592.50 5.6443e-17 
4594.00 6.2508e-17 
4595.50 7.1061e-17 
4597.00 6.8792e-17 
4598.50 6.2062e-17 
4600.00 7.1324e-17 
4601.50 6.2458e-17 
4603.00 8.6185e-17 
4604.50 6.7051e-17 
4606.00 6.4934e-17 
4607.50 5.8487e-17 
4609.00 4.5389e-17 
4610.50 5.2528e-17 
4612.00 5.4230e-17 
4613.50 6.3883e-17 
4615.00 5.2555e-17 
4616.50 5.5918e-17 
4618.00 5.3394e-17 
4619.50 5.6891e-17 
4621.00 5.7568e-17 
4622.50 5.3444e-17 
4624.00 8.1176e-17 
4625.50 5.8302e-17 
4627.00 4.5899e-17 
4628.50 5.8065e-17 
4630.00 6.0055e-17 
4631.50 6.7382e-17 
4633.00 5.6368e-17 
4634.50 6.5661e-17 
4636.00 6.5669e-17 
4637.50 6.8709e-17 
4639.00 7.2314e-17 
4640.50 7.1651e-17 
4642.00 5.6321e-17 
4643.50 7.2564e-17 
4645.00 5.5468e-17 
4646.50 6.9687e-17 
4648.00 5.2496e-17 
4649.50 5.7086e-17 
4651.00 5.5538e-17 
4652.50 5.0575e-17 
4654.00 6.7888e-17 
4655.50 6.3128e-17 
4657.00 7.0842e-17 
4658.50 6.8571e-17 
4660.00 5.2828e-17 
4661.50 6.0305e-17 
4663.00 6.5844e-17 
4664.50 6.2969e-17 
4666.00 6.8265e-17 
4667.50 5.5425e-17 
4669.00 6.5881e-17 
4670.50 6.6051e-17 
4672.00 6.6488e-17 
4673.50 6.3745e-17 
4675.00 5.1193e-17 
4676.50 6.1770e-17 
4678.00 7.5055e-17 
4679.50 6.2347e-17 
4681.00 5.2311e-17 
4682.50 6.1509e-17 
4684.00 6.5729e-17 
4685.50 6.1583e-17 
4687.00 6.0317e-17 
4688.50 6.3917e-17 
4690.00 5.5462e-17 
4691.50 6.0388e-17 
4693.00 5.7632e-17 
4694.50 5.6806e-17 
4696.00 5.7221e-17 
4697.50 4.9038e-17 
4699.00 6.2034e-17 
4700.50 6.1086e-17 
4702.00 6.0291e-17 
4703.50 6.2571e-17 
4705.00 5.3450e-17 
4706.50 4.5915e-17 
4708.00 6.0260e-17 
4709.50 6.5867e-17 
4711.00 6.6171e-17 
4712.50 4.9488e-17 
4714.00 6.3527e-17 
4715.50 6.1792e-17 
4717.00 5.9311e-17 
4718.50 5.3012e-17 
4720.00 6.6123e-17 
4721.50 6.1049e-17 
4723.00 4.9868e-17 
4724.50 6.2502e-17 
4726.00 6.5758e-17 
4727.50 4.6669e-17 
4729.00 4.4174e-17 
4730.50 7.5694e-17 
4732.00 6.3344e-17 
4733.50 6.0067e-17 
4735.00 7.4960e-17 
4736.50 6.7580e-17 
4738.00 4.6627e-17 
4739.50 6.0592e-17 
4741.00 5.7468e-17 
4742.50 7.3049e-17 
4744.00 5.6058e-17 
4745.50 6.4913e-17 
4747.00 7.4653e-17 
4748.50 6.4132e-17 
4750.00 6.9758e-17 
4751.50 6.6201e-17 
4753.00 6.8267e-17 
4754.50 5.6000e-17 
4756.00 7.4102e-17 
4757.50 5.9168e-17 
4759.00 6.4337e-17 
4760.50 5.9670e-17 
4762.00 5.8253e-17 
4763.50 5.0848e-17 
4765.00 5.8135e-17 
4766.50 6.1280e-17 
4768.00 6.0667e-17 
4769.50 6.2812e-17 
4771.00 7.2973e-17 
4772.50 7.5776e-17 
4774.00 5.4573e-17 
4775.50 6.0759e-17 
4777.00 5.4591e-17 
4778.50 6.3435e-17 
4780.00 4.7310e-17 
4781.50 5.7112e-17 
4783.00 6.4132e-17 
4784.50 6.7566e-17 
4786.00 6.6891e-17 
4787.50 6.1738e-17 
4789.00 7.2225e-17 
4790.50 6.3578e-17 
4792.00 5.5385e-17 
4793.50 6.8689e-17 
4795.00 5.3404e-17 
4796.50 5.2336e-17 
4798.00 6.3046e-17 
4799.50 6.0925e-17 
4801.00 7.3359e-17 
4802.50 6.7477e-17 
4804.00 7.2921e-17 
4805.50 7.1854e-17 
4807.00 6.2429e-17 
4808.50 5.7565e-17 
4810.00 6.8515e-17 
4811.50 7.4323e-17 
4813.00 6.4330e-17 
4814.50 7.2518e-17 
4816.00 6.5962e-17 
4817.50 6.6461e-17 
4819.00 6.2449e-17 
4820.50 6.3986e-17 
4822.00 6.6572e-17 
4823.50 6.3591e-17 
4825.00 5.9745e-17 
4826.50 6.0385e-17 
4828.00 6.2995e-17 
4829.50 6.7813e-17 
4831.00 6.2207e-17 
4832.50 4.9987e-17 
4834.00 5.5852e-17 
4835.50 5.0374e-17 
4837.00 6.5950e-17 
4838.50 5.3037e-17 
4840.00 5.7338e-17 
4841.50 5.9458e-17 
4843.00 6.1404e-17 
4844.50 5.1463e-17 
4846.00 5.0724e-17 
4847.50 7.3595e-17 
4849.00 6.7276e-17 
4850.50 6.7835e-17 
4852.00 7.6444e-17 
4853.50 6.6419e-17 
4855.00 6.9732e-17 
4856.50 5.9828e-17 
4858.00 5.3586e-17 
4859.50 4.3178e-17 
4861.00 4.6153e-17 
4862.50 4.5758e-17 
4864.00 7.0002e-17 
4865.50 5.9825e-17 
4867.00 4.9157e-17 
4868.50 6.3209e-17 
4870.00 4.6785e-17 
4871.50 5.3303e-17 
4873.00 6.0805e-17 
4874.50 5.4840e-17 
4876.00 4.7120e-17 
4877.50 5.0320e-17 
4879.00 5.0673e-17 
4880.50 5.3901e-17 
4882.00 5.4903e-17 
4883.50 5.6416e-17 
4885.00 5.5617e-17 
4886.50 5.5343e-17 
4888.00 5.6268e-17 
4889.50 6.1251e-17 
4891.00 5.0194e-17 
4892.50 5.6015e-17 
4894.00 6.4209e-17 
4895.50 6.0506e-17 
4897.00 5.8969e-17 
4898.50 6.4480e-17 
4900.00 5.3733e-17 
4901.50 6.1195e-17 
4903.00 6.3853e-17 
4904.50 6.7577e-17 
4906.00 5.5840e-17 
4907.50 5.4783e-17 
4909.00 6.6009e-17 
4910.50 5.7066e-17 
4912.00 4.7999e-17 
4913.50 5.2802e-17 
4915.00 4.9826e-17 
4916.50 5.7618e-17 
4918.00 6.7320e-17 
4919.50 5.4025e-17 
4921.00 6.6471e-17 
4922.50 5.6595e-17 
4924.00 5.7301e-17 
4925.50 4.8662e-17 
4927.00 4.4845e-17 
4928.50 4.5793e-17 
4930.00 4.3690e-17 
4931.50 4.6046e-17 
4933.00 6.5880e-17 
4934.50 6.0280e-17 
4936.00 6.1455e-17 
4937.50 5.3507e-17 
4939.00 7.8256e-17 
4940.50 6.1790e-17 
4942.00 5.2252e-17 
4943.50 5.7482e-17 
4945.00 6.0512e-17 
4946.50 6.0900e-17 
4948.00 5.8785e-17 
4949.50 5.4020e-17 
4951.00 6.1380e-17 
4952.50 4.9403e-17 
4954.00 5.9117e-17 
4955.50 5.3694e-17 
4957.00 4.9030e-17 
4958.50 4.9493e-17 
4960.00 6.2764e-17 
4961.50 5.1283e-17 
4963.00 5.5253e-17 
4964.50 5.7138e-17 
4966.00 5.7319e-17 
4967.50 6.6666e-17 
4969.00 5.2674e-17 
4970.50 5.7944e-17 
4972.00 6.8571e-17 
4973.50 5.4521e-17 
4975.00 6.2416e-17 
4976.50 5.9323e-17 
4978.00 6.7980e-17 
4979.50 5.6903e-17 
4981.00 5.9987e-17 
4982.50 5.4740e-17 
4984.00 6.8281e-17 
4985.50 5.1918e-17 
4987.00 6.3655e-17 
4988.50 6.5761e-17 
4990.00 5.7636e-17 
4991.50 5.4917e-17 
4993.00 6.5071e-17 
4994.50 6.1399e-17 
4996.00 7.6413e-17 
4997.50 5.9961e-17 
4999.00 6.2347e-17 
5000.50 4.2493e-17 
5002.00 5.6093e-17 
5003.50 7.1400e-17 
5005.00 5.8837e-17 
5006.50 5.8100e-17 
5008.00 6.4191e-17 
5009.50 6.0385e-17 
5011.00 5.4602e-17 
5012.50 5.6528e-17 
5014.00 5.1663e-17 
5015.50 5.7108e-17 
5017.00 5.3750e-17 
5018.50 5.5642e-17 
5020.00 5.6807e-17 
5021.50 5.2924e-17 
5023.00 5.8426e-17 
5024.50 5.5279e-17 
5026.00 6.0507e-17 
5027.50 6.6396e-17 
5029.00 6.0207e-17 
5030.50 6.2834e-17 
5032.00 6.9491e-17 
5033.50 5.6617e-17 
5035.00 4.3196e-17 
5036.50 5.1695e-17 
5038.00 6.0378e-17 
5039.50 6.6319e-17 
5041.00 6.4599e-17 
5042.50 6.4573e-17 
5044.00 4.6373e-17 
5045.50 4.7452e-17 
5047.00 6.3256e-17 
5048.50 6.1068e-17 
5050.00 4.8467e-17 
5051.50 5.4621e-17 
5053.00 5.2815e-17 
5054.50 5.0395e-17 
5056.00 5.9548e-17 
5057.50 6.5179e-17 
5059.00 6.5935e-17 
5060.50 6.1649e-17 
5062.00 5.7116e-17 
5063.50 5.5308e-17 
5065.00 5.7128e-17 
5066.50 6.2976e-17 
5068.00 5.5126e-17 
5069.50 6.6081e-17 
5071.00 8.0310e-17 
5072.50 5.9437e-17 
5074.00 4.7948e-17 
5075.50 5.7184e-17 
5077.00 5.4882e-17 
5078.50 5.3617e-17 
5080.00 5.5077e-17 
5081.50 6.5838e-17 
5083.00 6.6806e-17 
5084.50 7.3071e-17 
5086.00 7.5759e-17 
5087.50 4.6721e-17 
5089.00 6.4203e-17 
5090.50 6.6123e-17 
5092.00 5.8610e-17 
5093.50 5.4567e-17 
5095.00 5.3849e-17 
5096.50 5.5763e-17 
5098.00 5.1745e-17 
5099.50 6.2972e-17 
5101.00 4.7468e-17 
5102.50 5.7420e-17 
5104.00 6.0684e-17 
5105.50 6.3029e-17 
5107.00 5.8911e-17 
5108.50 5.0066e-17 
5110.00 4.9357e-17 
5111.50 5.6668e-17 
5113.00 5.8853e-17 
5114.50 5.3273e-17 
5116.00 4.9481e-17 
5117.50 6.9310e-17 
5119.00 6.4437e-17 
5120.50 6.1770e-17 
5122.00 7.0107e-17 
5123.50 5.7730e-17 
5125.00 5.7022e-17 
5126.50 6.2478e-17 
5128.00 6.7144e-17 
5129.50 6.3121e-17 
5131.00 6.3721e-17 
5132.50 6.4218e-17 
5134.00 6.1786e-17 
5135.50 6.1802e-17 
5137.00 5.7903e-17 
5138.50 5.2339e-17 
5140.00 5.9601e-17 
5141.50 6.7575e-17 
5143.00 5.7082e-17 
5144.50 6.9408e-17 
5146.00 6.6009e-17 
5147.50 6.8966e-17 
5149.00 6.1542e-17 
5150.50 5.5460e-17 
5152.00 6.7976e-17 
5153.50 6.4275e-17 
5155.00 6.3853e-17 
5156.50 6.1427e-17 
5158.00 7.6191e-17 
5159.50 7.6520e-17 
5161.00 6.0694e-17 
5162.50 6.0450e-17 
5164.00 7.2369e-17 
5165.50 6.3377e-17 
5167.00 6.5709e-17 
5168.50 6.1165e-17 
5170.00 6.5216e-17 
5171.50 5.5324e-17 
5173.00 6.6377e-17 
5174.50 7.0892e-17 
5176.00 6.3361e-17 
5177.50 6.2719e-17 
5179.00 6.3909e-17 
5180.50 6.3633e-17 
5182.00 6.7988e-17 
5183.50 7.4115e-17 
5185.00 7.9445e-17 
5186.50 7.9015e-17 
5188.00 7.0740e-17 
5189.50 6.8294e-17 
5191.00 6.7296e-17 
5192.50 7.3836e-17 
5194.00 7.7645e-17 
5195.50 8.2422e-17 
5197.00 6.1591e-17 
5198.50 7.0288e-17 
5200.00 9.0528e-17 
5201.50 8.7843e-17 
5203.00 8.0643e-17 
5204.50 8.3937e-17 
5206.00 8.1371e-17 
5207.50 7.9823e-17 
5209.00 7.6832e-17 
5210.50 7.0323e-17 
5212.00 7.3622e-17 
5213.50 8.3544e-17 
5215.00 8.0673e-17 
5216.50 8.9830e-17 
5218.00 8.2253e-17 
5219.50 7.3229e-17 
5221.00 7.6024e-17 
5222.50 7.1019e-17 
5224.00 6.9772e-17 
5225.50 8.1132e-17 
5227.00 8.3122e-17 
5228.50 7.8014e-17 
5230.00 7.3116e-17 
5231.50 6.2042e-17 
5233.00 7.3211e-17 
5234.50 6.8742e-17 
5236.00 6.6396e-17 
5237.50 6.4774e-17 
5239.00 7.3180e-17 
5240.50 6.2779e-17 
5242.00 6.9648e-17 
5243.50 7.6265e-17 
5245.00 7.5820e-17 
5246.50 7.1254e-17 
5248.00 6.7079e-17 
5249.50 7.2145e-17 
5251.00 7.6984e-17 
5252.50 7.8060e-17 
5254.00 7.8370e-17 
5255.50 5.9066e-17 
5257.00 7.7478e-17 
5258.50 7.4944e-17 
5260.00 6.7998e-17 
5261.50 7.3781e-17 
5263.00 6.8968e-17 
5264.50 7.0700e-17 
5266.00 6.9822e-17 
5267.50 6.3890e-17 
5269.00 6.0384e-17 
5270.50 5.7751e-17 
5272.00 6.4969e-17 
5273.50 6.6692e-17 
5275.00 6.3805e-17 
5276.50 6.0969e-17 
5278.00 7.2396e-17 
5279.50 5.4636e-17 
5281.00 6.1595e-17 
5282.50 7.2023e-17 
5284.00 6.7417e-17 
5285.50 6.1872e-17 
5287.00 7.2642e-17 
5288.50 5.2191e-17 
5290.00 5.4171e-17 
5291.50 6.8908e-17 
5293.00 6.0511e-17 
5294.50 6.1938e-17 
5296.00 5.6637e-17 
5297.50 4.8980e-17 
5299.00 5.3828e-17 
5300.50 5.7411e-17 
5302.00 4.6417e-17 
5303.50 3.5425e-17 
5305.00 4.2557e-17 
5306.50 4.7438e-17 
5308.00 5.4286e-17 
5309.50 6.8867e-17 
5311.00 6.4034e-17 
5312.50 6.4092e-17 
5314.00 5.4372e-17 
5315.50 5.9819e-17 
5317.00 7.3221e-17 
5318.50 5.8164e-17 
5320.00 5.7221e-17 
5321.50 6.2107e-17 
5323.00 5.0157e-17 
5324.50 5.5226e-17 
5326.00 6.7372e-17 
5327.50 6.0740e-17 
5329.00 5.6013e-17 
5330.50 5.8509e-17 
5332.00 6.3695e-17 
5333.50 5.9033e-17 
5335.00 4.7874e-17 
5336.50 5.4229e-17 
5338.00 5.9526e-17 
5339.50 5.2302e-17 
5341.00 4.7142e-17 
5342.50 5.7552e-17 
5344.00 4.0601e-17 
5345.50 4.0927e-17 
5347.00 5.1824e-17 
5348.50 5.3425e-17 
5350.00 5.9015e-17 
5351.50 5.8415e-17 
5353.00 4.8727e-17 
5354.50 4.9624e-17 
5356.00 5.3455e-17 
5357.50 5.6565e-17 
5359.00 5.9508e-17 
5360.50 5.3047e-17 
5362.00 4.9552e-17 
5363.50 5.0666e-17 
5365.00 4.7062e-17 
5366.50 7.3178e-17 
5368.00 6.3445e-17 
5369.50 5.8208e-17 
5371.00 4.9793e-17 
5372.50 5.0768e-17 
5374.00 5.9234e-17 
5375.50 6.1776e-17 
5377.00 6.2800e-17 
5378.50 5.8616e-17 
5380.00 4.9801e-17 
5381.50 5.6148e-17 
5383.00 5.1781e-17 
5384.50 5.6156e-17 
5386.00 5.2484e-17 
5387.50 4.9077e-17 
5389.00 4.6369e-17 
5390.50 4.7810e-17 
5392.00 5.6340e-17 
5393.50 5.5717e-17 
5395.00 5.6366e-17 
5396.50 4.2697e-17 
5398.00 4.5594e-17 
5399.50 5.6536e-17 
5401.00 5.6653e-17 
5402.50 5.7842e-17 
5404.00 4.6520e-17 
5405.50 4.9387e-17 
5407.00 6.1849e-17 
5408.50 6.0231e-17 
5410.00 4.9675e-17 
5411.50 5.5843e-17 
5413.00 5.7266e-17 
5414.50 4.8710e-17 
5416.00 5.9434e-17 
5417.50 5.6833e-17 
5419.00 5.3248e-17 
5420.50 4.7933e-17 
5422.00 4.8502e-17 
5423.50 5.6557e-17 
5425.00 5.2673e-17 
5426.50 4.1721e-17 
5428.00 4.5927e-17 
5429.50 4.6819e-17 
5431.00 5.4191e-17 
5432.50 5.5940e-17 
5434.00 4.5102e-17 
5435.50 5.8349e-17 
5437.00 5.7936e-17 
5438.50 4.8375e-17 
5440.00 4.5211e-17 
5441.50 4.5971e-17 
5443.00 4.2293e-17 
5444.50 4.3312e-17 
5446.00 4.9080e-17 
5447.50 5.1691e-17 
5449.00 4.7013e-17 
5450.50 4.5421e-17 
5452.00 6.1500e-17 
5453.50 4.6981e-17 
5455.00 5.0333e-17 
5456.50 5.4745e-17 
5458.00 5.6727e-17 
5459.50 4.7514e-17 
5461.00 5.7062e-17 
5462.50 5.4926e-17 
5464.00 5.6653e-17 
5465.50 4.7681e-17 
5467.00 4.5458e-17 
5468.50 5.3468e-17 
5470.00 5.2958e-17 
5471.50 5.3017e-17 
5473.00 4.9887e-17 
5474.50 4.1803e-17 
5476.00 5.6574e-17 
5477.50 4.7896e-17 
5479.00 5.0457e-17 
5480.50 5.2249e-17 
5482.00 5.2355e-17 
5483.50 5.1740e-17 
5485.00 5.4569e-17 
5486.50 5.1379e-17 
5488.00 4.2738e-17 
5489.50 5.9555e-17 
5491.00 4.8251e-17 
5492.50 4.6104e-17 
5494.00 5.1179e-17 
5495.50 4.9430e-17 
5497.00 6.1060e-17 
5498.50 5.5361e-17 
5500.00 4.6296e-17 
5501.50 4.4192e-17 
5503.00 5.4406e-17 
5504.50 5.0510e-17 
5506.00 5.3113e-17 
5507.50 5.3434e-17 
5509.00 5.8062e-17 
5510.50 6.1772e-17 
5512.00 4.5844e-17 
5513.50 3.9212e-17 
5515.00 4.5038e-17 
5516.50 4.3015e-17 
5518.00 4.0047e-17 
5519.50 4.3058e-17 
5521.00 5.0799e-17 
5522.50 5.7538e-17 
5524.00 5.1953e-17 
5525.50 4.3037e-17 
5527.00 4.4876e-17 
5528.50 5.3422e-17 
5530.00 6.0592e-17 
5531.50 5.6647e-17 
5533.00 5.2194e-17 
5534.50 5.0356e-17 
5536.00 6.0281e-17 
5537.50 6.0918e-17 
5539.00 5.7965e-17 
5540.50 4.5790e-17 
5542.00 4.6331e-17 
5543.50 4.0847e-17 
5545.00 5.3811e-17 
5546.50 5.3075e-17 
5548.00 4.8346e-17 
5549.50 5.2310e-17 
5551.00 5.6730e-17 
5552.50 3.4050e-17 
5554.00 3.8941e-17 
5555.50 4.8745e-17 
5557.00 5.4954e-17 
5558.50 5.0010e-17 
5560.00 3.8130e-17 
5561.50 4.1700e-17 
5563.00 4.8953e-17 
5564.50 4.4526e-17 
5566.00 4.7486e-17 
5567.50 4.8793e-17 
5569.00 4.2590e-17 
5570.50 4.7839e-17 
5572.00 5.4064e-17 
5573.50 4.9426e-17 
5575.00 4.5192e-17 
5576.50 1.3507e-18 
5578.00 1.2268e-16 
5579.50 2.2216e-16 
5581.00 4.4736e-17 
5582.50 2.4059e-17 
5584.00 5.2506e-17 
5585.50 4.8817e-17 
5587.00 5.4730e-17 
5588.50 5.7472e-17 
5590.00 6.1755e-17 
5591.50 4.6673e-17 
5593.00 4.4499e-17 
5594.50 5.1556e-17 
5596.00 5.5356e-17 
5597.50 4.6591e-17 
5599.00 4.9561e-17 
5600.50 5.2730e-17 
5602.00 4.3842e-17 
5603.50 4.7335e-17 
5605.00 5.1513e-17 
5606.50 5.3721e-17 
5608.00 5.7381e-17 
5609.50 4.9054e-17 
5611.00 4.8768e-17 
5612.50 4.7220e-17 
5614.00 5.2394e-17 
5615.50 4.0661e-17 
5617.00 6.4271e-17 
5618.50 5.2348e-17 
5620.00 5.0392e-17 
5621.50 4.2394e-17 
5623.00 4.2552e-17 
5624.50 5.2000e-17 
5626.00 4.3177e-17 
5627.50 3.8564e-17 
5629.00 4.6319e-17 
5630.50 5.6106e-17 
5632.00 5.8252e-17 
5633.50 5.0743e-17 
5635.00 4.4948e-17 
5636.50 4.2121e-17 
5638.00 4.5665e-17 
5639.50 5.3421e-17 
5641.00 5.5531e-17 
5642.50 4.5886e-17 
5644.00 5.5251e-17 
5645.50 5.1516e-17 
5647.00 5.2632e-17 
5648.50 5.3607e-17 
5650.00 5.0289e-17 
5651.50 4.0994e-17 
5653.00 4.4938e-17 
5654.50 4.5795e-17 
5656.00 4.4573e-17 
5657.50 4.5452e-17 
5659.00 4.9782e-17 
5660.50 6.3362e-17 
5662.00 5.7627e-17 
5663.50 5.0627e-17 
5665.00 4.6842e-17 
5666.50 5.8318e-17 
5668.00 5.4968e-17 
5669.50 4.5608e-17 
5671.00 5.2154e-17 
5672.50 5.5909e-17 
5674.00 5.7694e-17 
5675.50 4.7005e-17 
5677.00 3.6804e-17 
5678.50 4.9763e-17 
5680.00 4.9465e-17 
5681.50 4.8826e-17 
5683.00 4.5949e-17 
5684.50 7.2290e-17 
5686.00 4.6395e-17 
5687.50 4.4087e-17 
5689.00 5.2063e-17 
5690.50 4.8494e-17 
5692.00 5.9900e-17 
5693.50 6.1681e-17 
5695.00 6.2435e-17 
5696.50 3.4844e-17 
5698.00 5.8079e-17 
5699.50 5.6249e-17 
5701.00 5.0502e-17 
5702.50 5.8507e-17 
5704.00 5.3842e-17 
5705.50 4.6066e-17 
5707.00 4.5256e-17 
5708.50 5.4951e-17 
5710.00 5.3312e-17 
5711.50 5.5787e-17 
5713.00 6.0916e-17 
5714.50 6.4425e-17 
5716.00 6.2386e-17 
5717.50 6.0353e-17 
5719.00 4.8684e-17 
5720.50 5.5318e-17 
5722.00 5.0105e-17 
5723.50 6.0351e-17 
5725.00 6.1355e-17 
5726.50 4.8745e-17 
5728.00 5.9452e-17 
5729.50 5.9613e-17 
5731.00 4.7174e-17 
5732.50 5.7060e-17 
5734.00 4.9861e-17 
5735.50 4.6225e-17 
5737.00 5.3338e-17 
5738.50 5.1849e-17 
5740.00 5.5915e-17 
5741.50 5.0825e-17 
5743.00 6.4197e-17 
5744.50 5.3560e-17 
5746.00 4.9023e-17 
5747.50 5.3652e-17 
5749.00 4.8023e-17 
5750.50 5.0850e-17 
5752.00 5.3936e-17 
5753.50 5.2192e-17 
5755.00 5.0730e-17 
5756.50 4.8715e-17 
5758.00 4.2237e-17 
5759.50 4.3830e-17 
5761.00 4.1174e-17 
5762.50 6.8368e-17 
5764.00 6.6849e-17 
5765.50 5.4307e-17 
5767.00 4.8361e-17 
5768.50 4.1342e-17 
5770.00 5.0293e-17 
5771.50 5.2537e-17 
5773.00 4.5590e-17 
5774.50 4.8192e-17 
5776.00 5.5282e-17 
5777.50 4.8535e-17 
5779.00 5.1507e-17 
5780.50 4.8136e-17 
5782.00 5.8241e-17 
5783.50 5.9518e-17 
5785.00 5.0057e-17 
5786.50 5.2966e-17 
5788.00 4.6073e-17 
5789.50 4.3963e-17 
5791.00 5.3113e-17 
5792.50 4.1191e-17 
5794.00 3.6326e-17 
5795.50 4.1979e-17 
5797.00 4.8781e-17 
5798.50 5.2479e-17 
5800.00 4.9843e-17 
5801.50 5.6521e-17 
5803.00 4.4081e-17 
5804.50 4.7427e-17 
5806.00 5.9359e-17 
5807.50 5.4512e-17 
5809.00 5.0864e-17 
5810.50 5.1401e-17 
5812.00 5.3960e-17 
5813.50 5.6571e-17 
5815.00 5.8894e-17 
5816.50 4.9165e-17 
5818.00 3.8788e-17 
5819.50 5.0188e-17 
5821.00 5.5260e-17 
5822.50 6.1348e-17 
5824.00 5.3715e-17 
5825.50 4.1670e-17 
5827.00 5.1977e-17 
5828.50 5.2426e-17 
5830.00 4.7542e-17 
5831.50 4.1046e-17 
5833.00 5.2248e-17 
5834.50 6.3172e-17 
5836.00 5.3197e-17 
5837.50 5.6020e-17 
5839.00 3.9370e-17 
5840.50 3.4250e-17 
5842.00 4.0708e-17 
5843.50 5.8118e-17 
5845.00 5.7245e-17 
5846.50 7.5700e-17 
5848.00 4.6123e-17 
5849.50 5.8780e-17 
5851.00 4.4903e-17 
5852.50 4.6068e-17 
5854.00 4.2005e-17 
5855.50 4.6996e-17 
5857.00 5.2286e-17 
5858.50 5.8541e-17 
5860.00 5.6494e-17 
5861.50 5.8663e-17 
5863.00 5.4731e-17 
5864.50 4.9847e-17 
5866.00 4.9987e-17 
5867.50 4.5861e-17 
5869.00 4.9091e-17 
5870.50 5.1184e-17 
5872.00 4.6908e-17 
5873.50 3.7172e-17 
5875.00 3.9722e-17 
5876.50 5.3889e-17 
5878.00 4.3818e-17 
5879.50 3.7857e-17 
5881.00 4.9863e-17 
5882.50 4.5283e-17 
5884.00 3.8047e-17 
5885.50 3.6862e-17 
5887.00 4.7624e-17 
5888.50 4.0515e-17 
5890.00 4.5289e-17 
5891.50 6.6281e-17 
5893.00 6.6063e-17 
5894.50 4.2110e-17 
5896.00 4.5824e-17 
5897.50 7.2155e-17 
5899.00 5.0870e-17 
5900.50 4.9129e-17 
5902.00 4.5771e-17 
5903.50 4.4361e-17 
5905.00 4.5856e-17 
5906.50 4.1201e-17 
5908.00 4.5152e-17 
5909.50 4.3499e-17 
5911.00 4.5223e-17 
5912.50 4.8973e-17 
5914.00 3.9297e-17 
5915.50 5.5525e-17 
5917.00 4.6063e-17 
5918.50 3.6473e-17 
5920.00 4.2012e-17 
5921.50 4.5799e-17 
5923.00 4.4209e-17 
5924.50 4.5264e-17 
5926.00 6.0967e-17 
5927.50 4.6258e-17 
5929.00 4.4854e-17 
5930.50 3.3299e-17 
5932.00 4.3864e-17 
5933.50 5.8848e-17 
5935.00 4.8955e-17 
5936.50 5.1136e-17 
5938.00 5.5763e-17 
5939.50 4.4785e-17 
5941.00 4.9028e-17 
5942.50 5.1196e-17 
5944.00 4.4402e-17 
5945.50 3.7458e-17 
5947.00 4.4095e-17 
5948.50 4.7474e-17 
5950.00 4.5329e-17 
5951.50 5.2945e-17 
5953.00 5.2584e-17 
5954.50 5.0812e-17 
5956.00 3.7697e-17 
5957.50 3.0404e-17 
5959.00 3.5461e-17 
5960.50 3.0444e-17 
5962.00 4.2821e-17 
5963.50 5.4820e-17 
5965.00 4.9690e-17 
5966.50 4.1632e-17 
5968.00 4.4708e-17 
5969.50 5.2213e-17 
5971.00 5.6877e-17 
5972.50 5.4400e-17 
5974.00 4.4789e-17 
5975.50 4.1088e-17 
5977.00 5.4203e-17 
5978.50 5.1619e-17 
5980.00 3.2814e-17 
5981.50 4.3899e-17 
5983.00 4.1830e-17 
5984.50 3.9973e-17 
5986.00 3.0392e-17 
5987.50 2.7342e-17 
5989.00 4.5408e-17 
5990.50 4.7784e-17 
5992.00 3.2559e-17 
5993.50 5.1232e-17 
5995.00 4.7152e-17 
5996.50 4.2542e-17 
5998.00 3.9370e-17 
5999.50 4.6266e-17 
6001.00 3.6189e-17 
6002.50 3.6266e-17 
6004.00 4.0824e-17 
6005.50 4.3020e-17 
6007.00 4.0557e-17 
6008.50 3.7100e-17 
6010.00 5.1220e-17 
6011.50 3.7922e-17 
6013.00 4.3761e-17 
6014.50 3.2684e-17 
6016.00 2.9350e-17 
6017.50 3.2936e-17 
6019.00 4.0268e-17 
6020.50 4.3767e-17 
6022.00 3.6733e-17 
6023.50 4.1429e-17 
6025.00 4.6278e-17 
6026.50 4.3016e-17 
6028.00 4.7409e-17 
6029.50 4.7595e-17 
6031.00 4.1785e-17 
6032.50 3.9295e-17 
6034.00 4.6310e-17 
6035.50 4.1683e-17 
6037.00 4.6277e-17 
6038.50 4.4621e-17 
6040.00 4.3043e-17 
6041.50 4.5364e-17 
6043.00 4.5636e-17 
6044.50 4.0415e-17 
6046.00 4.0341e-17 
6047.50 3.4730e-17 
6049.00 3.2414e-17 
6050.50 3.9161e-17 
6052.00 4.4021e-17 
6053.50 3.1160e-17 
6055.00 4.2243e-17 
6056.50 4.5550e-17 
6058.00 3.7856e-17 
6059.50 3.6651e-17 
6061.00 3.6746e-17 
6062.50 3.8274e-17 
6064.00 3.5756e-17 
6065.50 4.3153e-17 
6067.00 4.7556e-17 
6068.50 4.6543e-17 
6070.00 4.0859e-17 
6071.50 3.8689e-17 
6073.00 3.1543e-17 
6074.50 3.3245e-17 
6076.00 4.3552e-17 
6077.50 4.2368e-17 
6079.00 3.7469e-17 
6080.50 4.0292e-17 
6082.00 3.9011e-17 
6083.50 3.5690e-17 
6085.00 4.4826e-17 
6086.50 3.6317e-17 
6088.00 3.2227e-17 
6089.50 4.5013e-17 
6091.00 4.3520e-17 
6092.50 3.7977e-17 
6094.00 4.2944e-17 
6095.50 4.6817e-17 
6097.00 4.4164e-17 
6098.50 3.8140e-17 
6100.00 3.8772e-17 
6101.50 4.5003e-17 
6103.00 3.3768e-17 
6104.50 2.8513e-17 
6106.00 4.6069e-17 
6107.50 5.1222e-17 
6109.00 3.8160e-17 
6110.50 3.4769e-17 
6112.00 3.8117e-17 
6113.50 3.5561e-17 
6115.00 3.5358e-17 
6116.50 4.4018e-17 
6118.00 3.9358e-17 
6119.50 4.0060e-17 
6121.00 4.9890e-17 
6122.50 4.1254e-17 
6124.00 3.6095e-17 
6125.50 3.5736e-17 
6127.00 3.1828e-17 
6128.50 2.9721e-17 
6130.00 3.5914e-17 
6131.50 3.6108e-17 
6133.00 3.4724e-17 
6134.50 3.8078e-17 
6136.00 4.1571e-17 
6137.50 4.0999e-17 
6139.00 2.9294e-17 
6140.50 3.9277e-17 
6142.00 5.0873e-17 
6143.50 4.0855e-17 
6145.00 2.8935e-17 
6146.50 3.3009e-17 
6148.00 3.8915e-17 
6149.50 4.2450e-17 
6151.00 4.6483e-17 
6152.50 4.6711e-17 
6154.00 4.1353e-17 
6155.50 4.5906e-17 
6157.00 3.6084e-17 
6158.50 2.5656e-17 
6160.00 2.8642e-17 
6161.50 3.9913e-17 
6163.00 4.4961e-17 
6164.50 4.6762e-17 
6166.00 4.2996e-17 
6167.50 4.2417e-17 
6169.00 3.8819e-17 
6170.50 3.5550e-17 
6172.00 3.6355e-17 
6173.50 3.7137e-17 
6175.00 3.6954e-17 
6176.50 3.5753e-17 
6178.00 3.9464e-17 
6179.50 3.5020e-17 
6181.00 3.5999e-17 
6182.50 4.0739e-17 
6184.00 3.1761e-17 
6185.50 3.5444e-17 
6187.00 3.9474e-17 
6188.50 3.7196e-17 
6190.00 4.2563e-17 
6191.50 4.4766e-17 
6193.00 3.8647e-17 
6194.50 4.2106e-17 
6196.00 4.4112e-17 
6197.50 2.8606e-17 
6199.00 3.8807e-17 
6200.50 4.3484e-17 
6202.00 4.1771e-17 
6203.50 3.9765e-17 
6205.00 3.8221e-17 
6206.50 4.1357e-17 
6208.00 4.2727e-17 
6209.50 4.2709e-17 
6211.00 4.0117e-17 
6212.50 4.2977e-17 
6214.00 3.9323e-17 
6215.50 3.4068e-17 
6217.00 3.8267e-17 
6218.50 4.2843e-17 
6220.00 4.2257e-17 
6221.50 3.6211e-17 
6223.00 4.5314e-17 
6224.50 4.9194e-17 
6226.00 4.1177e-17 
6227.50 4.0616e-17 
6229.00 3.8699e-17 
6230.50 3.7447e-17 
6232.00 4.0356e-17 
6233.50 4.4196e-17 
6235.00 4.4510e-17 
6236.50 4.1983e-17 
6238.00 4.7449e-17 
6239.50 4.3533e-17 
6241.00 4.1918e-17 
6242.50 4.5952e-17 
6244.00 5.3272e-17 
6245.50 5.2226e-17 
6247.00 4.0137e-17 
6248.50 3.9119e-17 
6250.00 3.6873e-17 
6251.50 3.1056e-17 
6253.00 3.6561e-17 
6254.50 4.4479e-17 
6256.00 4.1467e-17 
6257.50 3.6068e-17 
6259.00 3.4648e-17 
6260.50 3.2627e-17 
6262.00 5.0052e-17 
6263.50 4.5789e-17 
6265.00 3.9365e-17 
6266.50 4.6629e-17 
6268.00 4.8367e-17 
6269.50 4.1841e-17 
6271.00 4.1972e-17 
6272.50 3.9786e-17 
6274.00 3.4412e-17 
6275.50 3.5311e-17 
6277.00 4.1128e-17 
6278.50 4.2147e-17 
6280.00 4.2196e-17 
6281.50 3.8737e-17 
6283.00 3.3581e-17 
6284.50 4.4173e-17 
6286.00 4.1858e-17 
6287.50 4.5233e-17 
6289.00 3.6751e-17 
6290.50 3.1877e-17 
6292.00 3.6363e-17 
6293.50 3.7001e-17 
6295.00 3.8305e-17 
6296.50 4.6150e-17 
6298.00 4.0271e-17 
6299.50 3.9193e-17 
6301.00 5.6686e-17 
6302.50 2.7360e-17 
6304.00 5.8005e-17 
6305.50 4.0860e-17 
6307.00 4.0374e-17 
6308.50 3.6244e-17 
6310.00 4.8365e-17 
6311.50 4.1205e-17 
6313.00 3.9893e-17 
6314.50 4.5622e-17 
6316.00 4.6105e-17 
6317.50 4.7959e-17 
6319.00 5.1521e-17 
6320.50 4.4936e-17 
6322.00 4.4144e-17 
6323.50 4.6526e-17 
6325.00 4.2434e-17 
6326.50 3.9291e-17 
6328.00 4.5292e-17 
6329.50 4.1321e-17 
6331.00 4.3345e-17 
6332.50 4.7474e-17 
6334.00 4.0429e-17 
6335.50 4.2162e-17 
6337.00 4.2590e-17 
6338.50 4.3980e-17 
6340.00 3.7778e-17 
6341.50 3.3164e-17 
6343.00 4.4829e-17 
6344.50 4.4848e-17 
6346.00 4.8100e-17 
6347.50 4.3005e-17 
6349.00 4.4928e-17 
6350.50 4.3874e-17 
6352.00 3.8970e-17 
6353.50 3.6043e-17 
6355.00 4.7179e-17 
6356.50 4.3901e-17 
6358.00 4.4859e-17 
6359.50 4.0384e-17 
6361.00 3.2462e-17 
6362.50 2.9835e-17 
6364.00 3.5957e-17 
6365.50 4.1280e-17 
6367.00 4.3916e-17 
6368.50 4.1412e-17 
6370.00 3.9627e-17 
6371.50 4.6969e-17 
6373.00 4.7588e-17 
6374.50 4.7719e-17 
6376.00 4.3568e-17 
6377.50 3.8820e-17 
6379.00 3.7324e-17 
6380.50 3.6838e-17 
6382.00 4.7023e-17 
6383.50 4.8320e-17 
6385.00 4.6853e-17 
6386.50 4.5163e-17 
6388.00 4.0676e-17 
6389.50 4.4836e-17 
6391.00 3.9763e-17 
6392.50 3.9108e-17 
6394.00 4.6999e-17 
6395.50 5.0264e-17 
6397.00 4.0311e-17 
6398.50 3.8138e-17 
6400.00 3.9021e-17 
6401.50 3.3639e-17 
6403.00 4.0764e-17 
6404.50 4.1146e-17 
6406.00 3.1354e-17 
6407.50 3.9891e-17 
6409.00 3.8976e-17 
6410.50 3.3045e-17 
6412.00 3.3910e-17 
6413.50 4.0980e-17 
6415.00 3.9984e-17 
6416.50 2.9438e-17 
6418.00 4.4601e-17 
6419.50 4.1554e-17 
6421.00 4.5055e-17 
6422.50 3.7390e-17 
6424.00 4.0830e-17 
6425.50 4.3895e-17 
6427.00 4.1323e-17 
6428.50 4.0645e-17 
6430.00 3.6010e-17 
6431.50 3.8185e-17 
6433.00 4.6923e-17 
6434.50 4.3895e-17 
6436.00 4.1921e-17 
6437.50 3.8453e-17 
6439.00 3.6246e-17 
6440.50 4.8055e-17 
6442.00 5.6104e-17 
6443.50 5.3129e-17 
6445.00 5.2368e-17 
6446.50 4.3387e-17 
6448.00 5.2094e-17 
6449.50 4.8629e-17 
6451.00 4.5272e-17 
6452.50 3.8175e-17 
6454.00 4.4410e-17 
6455.50 4.4368e-17 
6457.00 4.3518e-17 
6458.50 4.4189e-17 
6460.00 4.0548e-17 
6461.50 3.5237e-17 
6463.00 3.8433e-17 
6464.50 4.2094e-17 
6466.00 4.1345e-17 
6467.50 4.1867e-17 
6469.00 4.1209e-17 
6470.50 4.1760e-17 
6472.00 4.3341e-17 
6473.50 4.1202e-17 
6475.00 4.2983e-17 
6476.50 4.1250e-17 
6478.00 4.2494e-17 
6479.50 3.9717e-17 
6481.00 3.5896e-17 
6482.50 3.7134e-17 
6484.00 3.5261e-17 
6485.50 3.6156e-17 
6487.00 3.7899e-17 
6488.50 3.7504e-17 
6490.00 3.7066e-17 
6491.50 3.9748e-17 
6493.00 3.9447e-17 
6494.50 4.0574e-17 
6496.00 4.1816e-17 
6497.50 4.0095e-17 
6499.00 4.5226e-17 
6500.50 5.3550e-17 
6502.00 5.0378e-17 
6503.50 4.1195e-17 
6505.00 3.8239e-17 
6506.50 3.7634e-17 
6508.00 3.8950e-17 
6509.50 3.7967e-17 
6511.00 3.5547e-17 
6512.50 3.6763e-17 
6514.00 3.9258e-17 
6515.50 4.2301e-17 
6517.00 4.5871e-17 
6518.50 4.6633e-17 
6520.00 4.5522e-17 
6521.50 4.5576e-17 
6523.00 4.3653e-17 
6524.50 3.7378e-17 
6526.00 3.4539e-17 
6527.50 3.6025e-17 
6529.00 3.9689e-17 
6530.50 4.4188e-17 
6532.00 4.1475e-17 
6533.50 4.0912e-17 
6535.00 4.9016e-17 
6536.50 4.4797e-17 
6538.00 3.7484e-17 
6539.50 4.5715e-17 
6541.00 5.2071e-17 
6542.50 5.4174e-17 
6544.00 4.8349e-17 
6545.50 4.3873e-17 
6547.00 4.7926e-17 
6548.50 4.4918e-17 
6550.00 4.0047e-17 
6551.50 4.1303e-17 
6553.00 4.2357e-17 
6554.50 4.2994e-17 
6556.00 4.2127e-17 
6557.50 3.8621e-17 
6559.00 3.7084e-17 
6560.50 4.0883e-17 
6562.00 3.6337e-17 
6563.50 2.9695e-17 
6565.00 3.1049e-17 
6566.50 3.7950e-17 
6568.00 3.6662e-17 
6569.50 4.2685e-17 
6571.00 4.0365e-17 
6572.50 4.3514e-17 
6574.00 4.1567e-17 
6575.50 3.9824e-17 
6577.00 4.7142e-17 
6578.50 4.2636e-17 
6580.00 2.8319e-17 
6581.50 2.8495e-17 
6583.00 3.3041e-17 
6584.50 3.3443e-17 
6586.00 4.0922e-17 
6587.50 3.9620e-17 
6589.00 3.6930e-17 
6590.50 4.2075e-17 
6592.00 4.4893e-17 
6593.50 4.6062e-17 
6595.00 4.7781e-17 
6596.50 5.0519e-17 
6598.00 3.5731e-17 
6599.50 4.5191e-17 
6601.00 4.3760e-17 
6602.50 3.7484e-17 
6604.00 4.3440e-17 
6605.50 3.9012e-17 
6607.00 3.7982e-17 
6608.50 3.9680e-17 
6610.00 3.8279e-17 
6611.50 3.9550e-17 
6613.00 4.3901e-17 
6614.50 4.5881e-17 
6616.00 4.1641e-17 
6617.50 4.2423e-17 
6619.00 4.1704e-17 
6620.50 4.0576e-17 
6622.00 3.9823e-17 
6623.50 3.9329e-17 
6625.00 4.2941e-17 
6626.50 3.9482e-17 
6628.00 3.8096e-17 
6629.50 3.6725e-17 
6631.00 4.1166e-17 
6632.50 4.0809e-17 
6634.00 4.0697e-17 
6635.50 4.3156e-17 
6637.00 4.2598e-17 
6638.50 3.9185e-17 
6640.00 4.1191e-17 
6641.50 4.2699e-17 
6643.00 3.8395e-17 
6644.50 3.6299e-17 
6646.00 4.0658e-17 
6647.50 4.4884e-17 
6649.00 4.4157e-17 
6650.50 4.3263e-17 
6652.00 4.2944e-17 
6653.50 4.0461e-17 
6655.00 4.1054e-17 
6656.50 4.4827e-17 
6658.00 4.3973e-17 
6659.50 4.0678e-17 
6661.00 3.8740e-17 
6662.50 4.1933e-17 
6664.00 4.8627e-17 
6665.50 4.2252e-17 
6667.00 3.8346e-17 
6668.50 4.0262e-17 
6670.00 4.3009e-17 
6671.50 4.4001e-17 
6673.00 3.9713e-17 
6674.50 3.6362e-17 
6676.00 4.1373e-17 
6677.50 4.1629e-17 
6679.00 3.7631e-17 
6680.50 4.1061e-17 
6682.00 4.3612e-17 
6683.50 4.0727e-17 
6685.00 4.3952e-17 
6686.50 4.8703e-17 
6688.00 3.9263e-17 
6689.50 4.1099e-17 
6691.00 4.5791e-17 
6692.50 3.4444e-17 
6694.00 3.3225e-17 
6695.50 4.5257e-17 
6697.00 3.5520e-17 
6698.50 4.1049e-17 
6700.00 3.8650e-17 
6701.50 4.0114e-17 
6703.00 4.2880e-17 
6704.50 4.6031e-17 
6706.00 4.3987e-17 
6707.50 4.0980e-17 
6709.00 4.5802e-17 
6710.50 4.4064e-17 
6712.00 3.8081e-17 
6713.50 3.9695e-17 
6715.00 4.3851e-17 
6716.50 4.5701e-17 
6718.00 4.4518e-17 
6719.50 4.2672e-17 
6721.00 4.7202e-17 
6722.50 5.6905e-17 
6724.00 5.7167e-17 
6725.50 4.1331e-17 
6727.00 4.9228e-17 
6728.50 5.1640e-17 
6730.00 3.8586e-17 
6731.50 3.3446e-17 
6733.00 4.0158e-17 
6734.50 4.4144e-17 
6736.00 4.5497e-17 
6737.50 4.4638e-17 
6739.00 3.7836e-17 
6740.50 4.0746e-17 
6742.00 4.2217e-17 
6743.50 4.4082e-17 
6745.00 4.4614e-17 
6746.50 4.1237e-17 
6748.00 4.0923e-17 
6749.50 4.2176e-17 
6751.00 4.4611e-17 
6752.50 4.4251e-17 
6754.00 3.7229e-17 
6755.50 3.4064e-17 
6757.00 3.8556e-17 
6758.50 4.0769e-17 
6760.00 4.0537e-17 
6761.50 4.1714e-17 
6763.00 4.3556e-17 
6764.50 4.5111e-17 
6766.00 4.3512e-17 
6767.50 4.2210e-17 
6769.00 3.8507e-17 
6770.50 3.9068e-17 
6772.00 4.2956e-17 
6773.50 4.1261e-17 
6775.00 4.1010e-17 
6776.50 3.9597e-17 
6778.00 3.2162e-17 
6779.50 3.4519e-17 
6781.00 3.6825e-17 
6782.50 3.6537e-17 
6784.00 3.6527e-17 
6785.50 3.9922e-17 
6787.00 4.2514e-17 
6788.50 4.3730e-17 
6790.00 4.3107e-17 
6791.50 4.0992e-17 
6793.00 4.0778e-17 
6794.50 4.1938e-17 
6796.00 4.1530e-17 
6797.50 4.0974e-17 
6799.00 4.2439e-17 
6800.50 4.4096e-17 
6802.00 4.3001e-17 
6803.50 3.9425e-17 
6805.00 3.8162e-17 
6806.50 4.1084e-17 
6808.00 4.0790e-17 
6809.50 3.9781e-17 
6811.00 3.7663e-17 
6812.50 4.1328e-17 
6814.00 3.7841e-17 
6815.50 3.7874e-17 
6817.00 3.9637e-17 
6818.50 4.3613e-17 
6820.00 4.1578e-17 
6821.50 4.4524e-17 
6823.00 3.9439e-17 
6824.50 4.0223e-17 
6826.00 4.1316e-17 
6827.50 3.6049e-17 
6829.00 3.9832e-17 
6830.50 4.3483e-17 
6832.00 3.9905e-17 
6833.50 3.7797e-17 
6835.00 3.9911e-17 
6836.50 4.3184e-17 
6838.00 4.3112e-17 
6839.50 4.0463e-17 
6841.00 4.0887e-17 
6842.50 4.3370e-17 
6844.00 5.0843e-17 
6845.50 4.6530e-17 
6847.00 3.5487e-17 
6848.50 3.7909e-17 
6850.00 4.0325e-17 
6851.50 4.5090e-17 
6853.00 4.0950e-17 
6854.50 4.0036e-17 
6856.00 4.0835e-17 
6857.50 4.2670e-17 
6859.00 4.2254e-17 
6860.50 3.8627e-17 
6862.00 2.8326e-17 
6863.50 2.6429e-17 
6865.00 3.8361e-17 
6866.50 3.9625e-17 
6868.00 3.1423e-17 
6869.50 4.0347e-17 
6871.00 4.4203e-17 
6872.50 4.1768e-17 
6874.00 4.3422e-17 
6875.50 4.6816e-17 
6877.00 3.7245e-17 
6878.50 3.6376e-17 
6880.00 3.8427e-17 
6881.50 3.7702e-17 
6883.00 3.6984e-17 
6884.50 3.7867e-17 
6886.00 4.4439e-17 
6887.50 4.0596e-17 
6889.00 3.8638e-17 
6890.50 4.4780e-17 
6892.00 4.6490e-17 
6893.50 4.3459e-17 
6895.00 4.3881e-17 
6896.50 4.3745e-17 
6898.00 4.2613e-17 
6899.50 4.1296e-17 
6901.00 3.9561e-17 
6902.50 4.7487e-17 
6904.00 5.3553e-17 
6905.50 4.6741e-17 
6907.00 3.6872e-17 
6908.50 3.8678e-17 
6910.00 4.3595e-17 
6911.50 4.3866e-17 
6913.00 4.9743e-17 
6914.50 4.4572e-17 
6916.00 3.7610e-17 
6917.50 3.8862e-17 
6919.00 3.9623e-17 
6920.50 3.6886e-17 
6922.00 4.0205e-17 
6923.50 4.6817e-17 
6925.00 4.5174e-17 
6926.50 4.7381e-17 
6928.00 3.4082e-17 
6929.50 4.5676e-17 
6931.00 4.3107e-17 
6932.50 4.1043e-17 
6934.00 3.9601e-17 
6935.50 3.6784e-17 
6937.00 4.0856e-17 
6938.50 3.4896e-17 
6940.00 3.5375e-17 
6941.50 3.6902e-17 
6943.00 3.6162e-17 
6944.50 3.6747e-17 
6946.00 3.7985e-17 
6947.50 4.0936e-17 
6949.00 4.3632e-17 
6950.50 4.5653e-17 
6952.00 4.3930e-17 
6953.50 4.1239e-17 
6955.00 3.6117e-17 
6956.50 4.1914e-17 
6958.00 4.4307e-17 
6959.50 3.5540e-17 
6961.00 3.5599e-17 
6962.50 3.9122e-17 
6964.00 3.7997e-17 
6965.50 3.7629e-17 
6967.00 3.8216e-17 
6968.50 3.8753e-17 
6970.00 4.2832e-17 
6971.50 4.5940e-17 
6973.00 4.2591e-17 
6974.50 4.6086e-17 
6976.00 4.3334e-17 
6977.50 3.6541e-17 
6979.00 3.3747e-17 
6980.50 3.6114e-17 
6982.00 4.8987e-17 
6983.50 4.0901e-17 
6985.00 4.0057e-17 
6986.50 4.5793e-17 
6988.00 4.1160e-17 
6989.50 3.8815e-17 
6991.00 4.4905e-17 
6992.50 4.5449e-17 
6994.00 4.2091e-17 
6995.50 4.0187e-17 
6997.00 4.4127e-17 
6998.50 3.1786e-17 
7000.00 3.5926e-17 
7001.50 3.7692e-17 
7003.00 3.7229e-17 
7004.50 4.0273e-17 
7006.00 3.6880e-17 
7007.50 3.0398e-17 
7009.00 3.2299e-17 
7010.50 3.4669e-17 
7012.00 3.5018e-17 
7013.50 3.6913e-17 
7015.00 3.6424e-17 
7016.50 3.7512e-17 
7018.00 4.0879e-17 
7019.50 4.0621e-17 
7021.00 4.0615e-17 
7022.50 3.8726e-17 
7024.00 3.8459e-17 
7025.50 3.7487e-17 
7027.00 3.5028e-17 
7028.50 3.6857e-17 
7030.00 3.8162e-17 
7031.50 3.6336e-17 
7033.00 3.5272e-17 
7034.50 3.5637e-17 
7036.00 3.4392e-17 
7037.50 3.5881e-17 
7039.00 3.9366e-17 
7040.50 3.8849e-17 
7042.00 3.2710e-17 
7043.50 3.3015e-17 
7045.00 3.3765e-17 
7046.50 3.4740e-17 
7048.00 4.1359e-17 
7049.50 4.1991e-17 
7051.00 4.3332e-17 
7052.50 4.5326e-17 
7054.00 4.0173e-17 
7055.50 3.5593e-17 
7057.00 4.3255e-17 
7058.50 4.1403e-17 
7060.00 3.8858e-17 
7061.50 4.0396e-17 
7063.00 4.5031e-17 
7064.50 4.9053e-17 
7066.00 4.9075e-17 
7067.50 4.3981e-17 
7069.00 3.8803e-17 
7070.50 4.3078e-17 
7072.00 4.6799e-17 
7073.50 4.2227e-17 
7075.00 4.1522e-17 
7076.50 4.5285e-17 
7078.00 4.0647e-17 
7079.50 3.9414e-17 
7081.00 4.7496e-17 
7082.50 3.9446e-17 
7084.00 4.5934e-17 
7085.50 4.2697e-17 
7087.00 4.1043e-17 
7088.50 4.2182e-17 
7090.00 4.7233e-17 
7091.50 4.8847e-17 
7093.00 4.1742e-17 
7094.50 3.8491e-17 
7096.00 3.9709e-17 
7097.50 3.6129e-17 
7099.00 3.8974e-17 
7100.50 4.4484e-17 
7102.00 4.3250e-17 
7103.50 3.6955e-17 
7105.00 3.5120e-17 
7106.50 3.8482e-17 
7108.00 4.1926e-17 
7109.50 4.1151e-17 
7111.00 3.8628e-17 
7112.50 3.9392e-17 
7114.00 3.7973e-17 
7115.50 3.5094e-17 
7117.00 3.6329e-17 
7118.50 4.0214e-17 
7120.00 3.8352e-17 
7121.50 3.6863e-17 
7123.00 3.5794e-17 
7124.50 3.2705e-17 
7126.00 3.4213e-17 
7127.50 4.0591e-17 
7129.00 4.4106e-17 
7130.50 4.2686e-17 
7132.00 3.3852e-17 
7133.50 3.0856e-17 
7135.00 3.4169e-17 
7136.50 3.3886e-17 
7138.00 3.7969e-17 
7139.50 3.8777e-17 
7141.00 3.8485e-17 
7142.50 3.7857e-17 
7144.00 3.8797e-17 
7145.50 4.2713e-17 
7147.00 4.5000e-17 
7148.50 3.8388e-17 
7150.00 3.6602e-17 
7151.50 3.4387e-17 
7153.00 3.6860e-17 
7154.50 4.0501e-17 
7156.00 3.8100e-17 
7157.50 4.0794e-17 
7159.00 4.4880e-17 
7160.50 4.5604e-17 
7162.00 4.1931e-17 
7163.50 3.5714e-17 
7165.00 3.3320e-17 
7166.50 3.9582e-17 
7168.00 4.0298e-17 
7169.50 3.7203e-17 
7171.00 3.5436e-17 
7172.50 3.8369e-17 
7174.00 3.4281e-17 
7175.50 3.8888e-17 
7177.00 4.4383e-17 
7178.50 3.9340e-17 
7180.00 3.3039e-17 
7181.50 3.3218e-17 
7183.00 3.9157e-17 
7184.50 3.8360e-17 
7186.00 4.3701e-17 
7187.50 3.4124e-17 
7189.00 3.3507e-17 
7190.50 3.8716e-17 
7192.00 3.5337e-17 
7193.50 3.2707e-17 
7195.00 3.7430e-17 
7196.50 3.5155e-17 
7198.00 3.8534e-17 
7199.50 4.1351e-17 
7201.00 4.4967e-17 
7202.50 3.1117e-17 
7204.00 4.0885e-17 
7205.50 4.2792e-17 
7207.00 3.9327e-17 
7208.50 3.6900e-17 
7210.00 3.9732e-17 
7211.50 4.3734e-17 
7213.00 3.5524e-17 
7214.50 3.5588e-17 
7216.00 3.4761e-17 
7217.50 3.8726e-17 
7219.00 3.6552e-17 
7220.50 3.7920e-17 
7222.00 4.2490e-17 
7223.50 4.0755e-17 
7225.00 3.8295e-17 
7226.50 4.1028e-17 
7228.00 3.6815e-17 
7229.50 3.5714e-17 
7231.00 3.7406e-17 
7232.50 3.1752e-17 
7234.00 3.5914e-17 
7235.50 3.8209e-17 
7237.00 2.9104e-17 
7238.50 3.2600e-17 
7240.00 3.7887e-17 
7241.50 3.7458e-17 
7243.00 5.5630e-17 
7244.50 1.8959e-17 
7246.00 2.1478e-17 
7247.50 6.1445e-17 
7249.00 3.8317e-17 
7250.50 4.0237e-17 
7252.00 3.4497e-17 
7253.50 2.7663e-17 
7255.00 3.1864e-17 
7256.50 4.0407e-17 
7258.00 4.1754e-17 
7259.50 4.2983e-17 
7261.00 2.7862e-17 
7262.50 4.0866e-17 
7264.00 3.3826e-17 
7265.50 3.1763e-17 
7267.00 3.7953e-17 
7268.50 4.4598e-17 
7270.00 4.1603e-17 
7271.50 3.2626e-17 
7273.00 3.9470e-17 
7274.50 3.4083e-17 
7276.00 1.7126e-17 
7277.50 3.9699e-17 
7279.00 4.5448e-17 
7280.50 3.5248e-17 
7282.00 2.9341e-17 
7283.50 3.4972e-17 
7285.00 4.2697e-17 
7286.50 4.3240e-17 
7288.00 4.8107e-17 
7289.50 2.5527e-17 
7291.00 3.5856e-17 
7292.50 3.1427e-17 
7294.00 3.0394e-17 
7295.50 3.7615e-17 
7297.00 4.0906e-17 
7298.50 3.7122e-17 
7300.00 3.6448e-17 
7301.50 3.9960e-17 
7303.00 3.1329e-17 
7304.50 3.9359e-17 
7306.00 4.7047e-17 
7307.50 3.9582e-17 
7309.00 3.5697e-17 
7310.50 3.7256e-17 
7312.00 3.9783e-17 
7313.50 3.6588e-17 
7315.00 2.1807e-17 
7316.50 2.2222e-17 
7318.00 4.9598e-17 
7319.50 4.9642e-17 
7321.00 3.6380e-17 
7322.50 3.5104e-17 
7324.00 3.8108e-17 
7325.50 3.6748e-17 
7327.00 2.8703e-17 
7328.50 1.6986e-17 
7330.00 3.8705e-17 
7331.50 4.5649e-17 
7333.00 4.7361e-17 
7334.50 3.3902e-17 
7336.00 3.2195e-17 
7337.50 3.4184e-17 
7339.00 3.2420e-17 
7340.50 3.5747e-17 
7342.00 5.7279e-17 
7343.50 6.0711e-17 
7345.00 4.0431e-17 
7346.50 2.7559e-17 
7348.00 3.1096e-17 
7349.50 3.4613e-17 
7351.00 3.8368e-17 
7352.50 4.2559e-17 
7354.00 4.2954e-17 
7355.50 3.8292e-17 
7357.00 3.5918e-17 
7358.50 3.6781e-17 
7360.00 4.7433e-17 
7361.50 3.8597e-17 
7363.00 3.5757e-17 
7364.50 3.6490e-17 
7366.00 3.3983e-17 
7367.50 2.8346e-17 
7369.00 1.1617e-17 
7370.50 4.0149e-17 
7372.00 3.0507e-17 
7373.50 2.5255e-17 
7375.00 3.4180e-17 
7376.50 3.6479e-17 
7378.00 3.2198e-17 
7379.50 3.1367e-17 
7381.00 3.3007e-17 
7382.50 3.3110e-17 
7384.00 3.9437e-17 
7385.50 3.3456e-17 
7387.00 3.8641e-17 
7388.50 3.7607e-17 
7390.00 3.2323e-17 
7391.50 2.8362e-17 
7393.00 2.6964e-17 
7394.50 2.8487e-17 
7396.00 3.1864e-17 
7397.50 3.5439e-17 
7399.00 2.5968e-17 
7400.50 2.3746e-17 
7402.00 3.6871e-17 
7403.50 4.8870e-17 
7405.00 4.5552e-17 
7406.50 4.1143e-17 
7408.00 4.4274e-17 
7409.50 3.5856e-17 
7411.00 3.3659e-17 
7412.50 3.8069e-17 
7414.00 3.9728e-17 
7415.50 3.6359e-17 
7417.00 3.5266e-17 
7418.50 4.3488e-17 
7420.00 3.5405e-17 
7421.50 3.1765e-17 
7423.00 3.4352e-17 
7424.50 3.5281e-17 
7426.00 3.6026e-17 
7427.50 4.0123e-17 
7429.00 4.2872e-17 
7430.50 3.7147e-17 
7432.00 3.9945e-17 
7433.50 4.7916e-17 
7435.00 3.6266e-17 
7436.50 3.1818e-17 
7438.00 3.5847e-17 
7439.50 4.2274e-17 
7441.00 4.3447e-17 
7442.50 3.8444e-17 
7444.00 4.3160e-17 
7445.50 3.8171e-17 
7447.00 3.3350e-17 
7448.50 3.5335e-17 
7450.00 3.7757e-17 
7451.50 3.9861e-17 
7453.00 4.1320e-17 
7454.50 4.0913e-17 
7456.00 3.8889e-17 
7457.50 3.6371e-17 
7459.00 3.1469e-17 
7460.50 2.9301e-17 
7462.00 3.4866e-17 
7463.50 3.8436e-17 
7465.00 3.5662e-17 
7466.50 3.2884e-17 
7468.00 3.2797e-17 
7469.50 3.4465e-17 
7471.00 3.7147e-17 
7472.50 3.9527e-17 
7474.00 4.4010e-17 
7475.50 4.5797e-17 
7477.00 4.0068e-17 
7478.50 3.0696e-17 
7480.00 4.9109e-17 
7481.50 4.8762e-17 
7483.00 3.8657e-17 
7484.50 3.6936e-17 
7486.00 4.0215e-17 
7487.50 3.9206e-17 
7489.00 3.1872e-17 
7490.50 3.1700e-17 
7492.00 4.1880e-17 
7493.50 3.5890e-17 
7495.00 3.4030e-17 
7496.50 3.2708e-17 
7498.00 3.3803e-17 
7499.50 3.6655e-17 
7501.00 3.6948e-17 
7502.50 2.8576e-17 
7504.00 4.1287e-17 
7505.50 3.8278e-17 
7507.00 3.5842e-17 
7508.50 4.1244e-17 
7510.00 4.2879e-17 
7511.50 3.7551e-17 
7513.00 3.9916e-17 
7514.50 3.9569e-17 
7516.00 3.9603e-17 
7517.50 3.4685e-17 
7519.00 4.2875e-17 
7520.50 4.6907e-17 
7522.00 4.0993e-17 
7523.50 3.3213e-17 
7525.00 3.5255e-17 
7526.50 5.0435e-17 
7528.00 3.7418e-17 
7529.50 3.7231e-17 
7531.00 3.9939e-17 
7532.50 4.0782e-17 
7534.00 4.1192e-17 
7535.50 4.6207e-17 
7537.00 4.1057e-17 
7538.50 3.9015e-17 
7540.00 4.1750e-17 
7541.50 4.1014e-17 
7543.00 4.0391e-17 
7544.50 4.0524e-17 
7546.00 3.8599e-17 
7547.50 3.6743e-17 
7549.00 3.6621e-17 
7550.50 4.1862e-17 
7552.00 4.0407e-17 
7553.50 4.4749e-17 
7555.00 5.0917e-17 
7556.50 4.8651e-17 
7558.00 3.9418e-17 
7559.50 4.3912e-17 
7561.00 3.4529e-17 
7562.50 3.6715e-17 
7564.00 3.8833e-17 
7565.50 3.6808e-17 
7567.00 3.4219e-17 
7568.50 3.9997e-17 
7570.00 3.0850e-17 
7571.50 3.9554e-17 
7573.00 4.8189e-17 
7574.50 4.7824e-17 
7576.00 4.3623e-17 
7577.50 4.0864e-17 
7579.00 3.9277e-17 
7580.50 4.5882e-17 
7582.00 4.1569e-17 
7583.50 3.8408e-17 
7585.00 4.0058e-17 
7586.50 4.3200e-17 
7588.00 4.4452e-17 
7589.50 4.2907e-17 
7591.00 4.0361e-17 
7592.50 3.8493e-17 
7594.00 4.2832e-17 
7595.50 4.3389e-17 
7597.00 4.3341e-17 
7598.50 3.6231e-17 
7600.00 1.4598e-17 
7601.50 6.4000e-17 
7603.00 3.3749e-17 
7604.50 2.9058e-17 
7606.00 3.4986e-17 
7607.50 4.6389e-17 
7609.00 5.1514e-17 
7610.50 3.8083e-17 
7612.00 5.1312e-17 
7613.50 5.2378e-17 
7615.00 3.9563e-17 
7616.50 3.7033e-17 
7618.00 4.1472e-17 
7619.50 4.5976e-17 
7621.00 4.6917e-17 
7622.50 4.6820e-17 
7624.00 4.5420e-17 
7625.50 5.1369e-17 
7627.00 5.2284e-17 
7628.50 5.2443e-17 
7630.00 5.8739e-17 
7631.50 7.3588e-17 
7633.00 5.6572e-17 
7634.50 5.3231e-17 
7636.00 6.1758e-17 
7637.50 5.9281e-17 
7639.00 4.8192e-17 
7640.50 4.0106e-17 
7642.00 4.6124e-17 
7643.50 6.1444e-17 
7645.00 5.6843e-17 
7646.50 5.3157e-17 
7648.00 4.8469e-17 
7649.50 4.7561e-17 
7651.00 5.5557e-17 
7652.50 6.7934e-17 
7654.00 4.5414e-17 
7655.50 5.3961e-17 
7657.00 5.8283e-17 
7658.50 6.0097e-17 
7660.00 5.8394e-17 
7661.50 5.0904e-17 
7663.00 6.1243e-17 
7664.50 6.4270e-17 
7666.00 5.2840e-17 
7667.50 4.8276e-17 
7669.00 4.7522e-17 
7670.50 4.7495e-17 
7672.00 5.2851e-17 
7673.50 5.9352e-17 
7675.00 4.7318e-17 
7676.50 4.4549e-17 
7678.00 4.4233e-17 
7679.50 4.6482e-17 
7681.00 5.1429e-17 
7682.50 4.6956e-17 
7684.00 4.9349e-17 
7685.50 4.9003e-17 
7687.00 4.7261e-17 
7688.50 4.7389e-17 
7690.00 4.7895e-17 
7691.50 4.3377e-17 
7693.00 5.1501e-17 
7694.50 5.3307e-17 
7696.00 4.8120e-17 
7697.50 4.9979e-17 
7699.00 5.1903e-17 
7700.50 4.7230e-17 
7702.00 5.3704e-17 
7703.50 5.4450e-17 
7705.00 5.2764e-17 
7706.50 4.8588e-17 
7708.00 4.6536e-17 
7709.50 4.4896e-17 
7711.00 3.6519e-17 
7712.50 4.7517e-17 
7714.00 4.7175e-17 
7715.50 4.9604e-17 
7717.00 3.6847e-17 
7718.50 3.3294e-17 
7720.00 5.7113e-17 
7721.50 3.1542e-17 
7723.00 4.1379e-17 
7724.50 4.9394e-17 
7726.00 5.3259e-17 
7727.50 4.9721e-17 
7729.00 4.4392e-17 
7730.50 5.5530e-17 
7732.00 4.7177e-17 
7733.50 3.9596e-17 
7735.00 3.7965e-17 
7736.50 4.5121e-17 
7738.00 5.1227e-17 
7739.50 4.1627e-17 
7741.00 3.9504e-17 
7742.50 4.4368e-17 
7744.00 4.1285e-17 
7745.50 4.4949e-17 
7747.00 4.7895e-17 
7748.50 3.9057e-17 
7750.00 1.7184e-17 
7751.50 1.4783e-17 
7753.00 4.3910e-17 
7754.50 4.8003e-17 
7756.00 4.1093e-17 
7757.50 3.6026e-17 
7759.00 2.4766e-17 
7760.50 5.4915e-17 
7762.00 4.5083e-17 
7763.50 3.9210e-17 
7765.00 3.8264e-17 
7766.50 4.0363e-17 
7768.00 4.2072e-17 
7769.50 2.7176e-17 
7771.00 3.6475e-17 
7772.50 3.0744e-17 
7774.00 3.3070e-17 
7775.50 4.3884e-17 
7777.00 4.8638e-17 
7778.50 3.0448e-17 
7780.00 3.1239e-17 
7781.50 4.8770e-17 
7783.00 4.6925e-17 
7784.50 3.6168e-17 
7786.00 4.0843e-17 
7787.50 4.0841e-17 
7789.00 3.8094e-17 
7790.50 4.2051e-17 
7792.00 3.7481e-17 
7793.50 3.2593e-17 
7795.00 3.8963e-17 
7796.50 5.3130e-17 
7798.00 4.4637e-17 
7799.50 4.6652e-17 
7801.00 4.0959e-17 
7802.50 3.3756e-17 
7804.00 3.3254e-17 
7805.50 3.4791e-17 
7807.00 4.1143e-17 
7808.50 3.6421e-17 
7810.00 4.5413e-17 
7811.50 5.0738e-17 
7813.00 3.7325e-17 
7814.50 2.3464e-17 
7816.00 3.4226e-17 
7817.50 3.1619e-17 
7819.00 2.4330e-17 
7820.50 1.3320e-17 
7822.00 9.8584e-18 
7823.50 7.6413e-17 
7825.00 4.5831e-17 
7826.50 3.8239e-17 
7828.00 3.3384e-17 
7829.50 3.2854e-17 
7831.00 3.7503e-17 
7832.50 3.3218e-17 
7834.00 3.0350e-17 
7835.50 3.1682e-17 
7837.00 3.2706e-17 
7838.50 3.1833e-17 
7840.00 2.9074e-17 
7841.50 3.0282e-17 
7843.00 5.1245e-17 
7844.50 4.0784e-17 
7846.00 3.8261e-17 
7847.50 3.8105e-17 
7849.00 2.7074e-17 
7850.50 1.9624e-17 
7852.00 3.1040e-17 
7853.50 2.4963e-17 
7855.00 6.4297e-17 
7856.50 1.0137e-16 
7858.00 5.4723e-17 
7859.50 4.6223e-17 
7861.00 3.9044e-17 
7862.50 4.3265e-17 
7864.00 4.6132e-17 
7865.50 4.2798e-17 
7867.00 3.2945e-17 
7868.50 4.2575e-17 
7870.00 4.2948e-17 
7871.50 3.6399e-17 
7873.00 3.1765e-17 
7874.50 3.0769e-17 
7876.00 2.6316e-17 
7877.50 2.6036e-17 
7879.00 2.4113e-17 
7880.50 2.1969e-17 
7882.00 2.6086e-17 
7883.50 3.5734e-17 
7885.00 2.9036e-17 
7886.50 4.1866e-17 
7888.00 3.1456e-17 
7889.50 3.0595e-17 
7891.00 4.1383e-17 
7892.50 5.7413e-17 
7894.00 4.4283e-17 
7895.50 3.8244e-17 
7897.00 4.2698e-17 
7898.50 3.9995e-17 
7900.00 3.3259e-17 
7901.50 3.5394e-17 
7903.00 3.3499e-17 
7904.50 3.1486e-17 
7906.00 3.2322e-17 
7907.50 3.2281e-17 
7909.00 2.9494e-17 
7910.50 2.3720e-17 
7912.00 1.8372e-17 
7913.50 4.2140e-17 
7915.00 5.9513e-17 
7916.50 5.9996e-17 
7918.00 4.0947e-17 
7919.50 2.5952e-17 
7921.00 1.8166e-17 
7922.50 4.8129e-17 
7924.00 4.3950e-17 
7925.50 1.8663e-17 
7927.00 2.6836e-17 
7928.50 2.4330e-17 
7930.00 2.1144e-17 
7931.50 3.2443e-17 
7933.00 3.8796e-17 
7934.50 3.4112e-17 
7936.00 4.1205e-17 
7937.50 3.1098e-17 
7939.00 2.7535e-17 
7940.50 2.8434e-17 
7942.00 3.4246e-17 
7943.50 4.4215e-17 
7945.00 3.2899e-17 
7946.50 2.8377e-17 
7948.00 2.6241e-17 
7949.50 2.2361e-17 
7951.00 1.8985e-17 
7952.50 2.8811e-17 
7954.00 3.5087e-17 
7955.50 2.8277e-17 
7957.00 2.7954e-17 
7958.50 3.3485e-17 
7960.00 4.0637e-17 
7961.50 3.1464e-17 
7963.00 1.9639e-17 
7964.50 3.9787e-17 
7966.00 5.1409e-17 
7967.50 4.6021e-17 
7969.00 4.4827e-17 
7970.50 3.2151e-17 
7972.00 3.2974e-17 
7973.50 3.3633e-17 
7975.00 3.2230e-17 
7976.50 2.7945e-17 
7978.00 1.6608e-17 
7979.50 2.9368e-17 
7981.00 4.0436e-17 
7982.50 4.1221e-17 
7984.00 3.2597e-17 
7985.50 3.2312e-17 
7987.00 3.1254e-17 
7988.50 3.5428e-17 
7990.00 3.7411e-17 
7991.50 3.4518e-17 
7993.00 2.5137e-17 
7994.50 6.0800e-17 
7996.00 8.2309e-17 
7997.50 5.6597e-17 
7999.00 3.4574e-17 
8000.50 4.1761e-17 
8002.00 3.4204e-17 
8003.50 2.8860e-17 
8005.00 2.7438e-17 
8006.50 3.1700e-17 
8008.00 3.6573e-17 
8009.50 2.8669e-17 
8011.00 3.3485e-17 
8012.50 2.9308e-17 
8014.00 3.0960e-17 
8015.50 3.6200e-17 
8017.00 4.0903e-17 
8018.50 3.1634e-17 
8020.00 2.4347e-17 
8021.50 2.0533e-17 
8023.00 1.9611e-17 
8024.50 2.2704e-17 
8026.00 3.9216e-17 
8027.50 4.1134e-17 
8029.00 3.5851e-17 
8030.50 2.9966e-17 
8032.00 2.9560e-17 
8033.50 4.6504e-17 
8035.00 3.7703e-17 
8036.50 2.7441e-17 
8038.00 2.3599e-17 
8039.50 2.4923e-17 
8041.00 2.8471e-17 
8042.50 2.2559e-17 
8044.00 2.8856e-17 
8045.50 3.0879e-17 
8047.00 2.9292e-17 
8048.50 2.6193e-17 
8050.00 3.8862e-17 
8051.50 3.7454e-17 
8053.00 3.7192e-17 
8054.50 3.4804e-17 
8056.00 3.0136e-17 
8057.50 2.7436e-17 
8059.00 2.9962e-17 
8060.50 3.5073e-17 
8062.00 3.6042e-17 
8063.50 3.1004e-17 
8065.00 1.8042e-17 
8066.50 2.8160e-17 
8068.00 2.9649e-17 
8069.50 2.8653e-17 
8071.00 2.7909e-17 
8072.50 3.0895e-17 
8074.00 4.2410e-17 
8075.50 3.0753e-17 
8077.00 2.7512e-17 
8078.50 3.1451e-17 
8080.00 3.9862e-17 
8081.50 3.6367e-17 
8083.00 3.6263e-17 
8084.50 3.6877e-17 
8086.00 3.3930e-17 
8087.50 2.7001e-17 
8089.00 4.8848e-17 
8090.50 3.5582e-17 
8092.00 3.5088e-17 
8093.50 3.1055e-17 
8095.00 1.8995e-17 
8096.50 1.7872e-17 
8098.00 2.9017e-17 
8099.50 2.1304e-17 
8101.00 2.2753e-17 
8102.50 3.6794e-17 
8104.00 3.5985e-17 
8105.50 3.8277e-17 
8107.00 3.1700e-17 
8108.50 2.5500e-17 
8110.00 2.2499e-17 
8111.50 2.4867e-17 
8113.00 4.0153e-17 
8114.50 3.6777e-17 
8116.00 3.3966e-17 
8117.50 3.4117e-17 
8119.00 3.4516e-17 
8120.50 3.2179e-17 
8122.00 3.4126e-17 
8123.50 3.6986e-17 
8125.00 3.9391e-17 
8126.50 3.9114e-17 
8128.00 2.1396e-17 
8129.50 2.3303e-17 
8131.00 2.6988e-17 
8132.50 2.9361e-17 
8134.00 2.7703e-17 
8135.50 2.9410e-17 
8137.00 2.0592e-17 
8138.50 2.2904e-17 
8140.00 3.0674e-17 
8141.50 2.6525e-17 
8143.00 3.1014e-17 
8144.50 2.9172e-17 
8146.00 2.9734e-17 
8147.50 3.0980e-17 
8149.00 2.7024e-17 
8150.50 3.0265e-17 
8152.00 2.4886e-17 
8153.50 2.8441e-17 
8155.00 3.7497e-17 
8156.50 4.0586e-17 
8158.00 2.8488e-17 
8159.50 3.3620e-17 
8161.00 3.3870e-17 
8162.50 2.9368e-17 
8164.00 2.6332e-17 
8165.50 3.9201e-17 
8167.00 3.3139e-17 
8168.50 2.7484e-17 
8170.00 2.4830e-17 
8171.50 2.5215e-17 
8173.00 3.1757e-17 
8174.50 3.8759e-17 
8176.00 3.9573e-17 
8177.50 3.5001e-17 
8179.00 3.2818e-17 
8180.50 3.3643e-17 
8182.00 3.0561e-17 
8183.50 2.8720e-17 
8185.00 2.8600e-17 
8186.50 2.5623e-17 
8188.00 2.8115e-17 
8189.50 4.3849e-17 
8191.00 4.7702e-17 
8192.50 3.4950e-17 
8194.00 3.9257e-17 
8195.50 2.9611e-17 
8197.00 2.9534e-17 
8198.50 3.1612e-17 
8200.00 3.2389e-17 
8201.50 2.5356e-17 
8203.00 2.7666e-17 
8204.50 2.5596e-17 
8206.00 2.3315e-17 
8207.50 2.3751e-17 
8209.00 3.2025e-17 
8210.50 2.6679e-17 
8212.00 2.5124e-17 
8213.50 2.5064e-17 
8215.00 2.3936e-17 
8216.50 3.1988e-17 
8218.00 2.4393e-17 
8219.50 2.5365e-17 
8221.00 2.9861e-17 
8222.50 2.5678e-17 
8224.00 2.8343e-17 
8225.50 3.4059e-17 
8227.00 3.5042e-17 
8228.50 2.9160e-17 
8230.00 9.4492e-18 
8231.50 2.2952e-17 
8233.00 2.6347e-17 
8234.50 3.1636e-17 
8236.00 3.9354e-17 
8237.50 2.7846e-17 
8239.00 3.6618e-17 
8240.50 3.3387e-17 
8242.00 2.9219e-17 
8243.50 2.9660e-17 
8245.00 1.9176e-17 
8246.50 2.4045e-17 
8248.00 2.1952e-17 
8249.50 1.9743e-17 
8251.00 2.6197e-17 
8252.50 4.3242e-17 
8254.00 3.2599e-17 
8255.50 2.5000e-17 
8257.00 2.3642e-17 
8258.50 3.4126e-17 
8260.00 2.6052e-17 
8261.50 2.2689e-17 
8263.00 2.7313e-17 
8264.50 3.8326e-17 
8266.00 3.1719e-17 
8267.50 2.8206e-17 
8269.00 2.9472e-17 
8270.50 3.0718e-17 
8272.00 2.9215e-17 
8273.50 3.2584e-17 
8275.00 2.4540e-17 
8276.50 1.8140e-17 
8278.00 1.4664e-17 
8279.50 1.7045e-17 
8281.00 4.2955e-17 
8282.50 4.3960e-17 
8284.00 2.9838e-17 
8285.50 9.1458e-18 
8287.00 2.3462e-17 
8288.50 1.6153e-17 
8290.00 3.6739e-17 
8291.50 3.9737e-17 
8293.00 3.6183e-18 
8294.50 3.6381e-17 
8296.00 3.3807e-17 
8297.50 1.6931e-17 
8299.00 2.0348e-18 
8300.50 1.6403e-17 
8302.00 4.5386e-17 
8303.50 3.8094e-17 
8305.00 2.7763e-17 
8306.50 1.9312e-17 
8308.00 1.7732e-17 
8309.50 2.1183e-17 
8311.00 2.3439e-17 
8312.50 2.6390e-17 
8314.00 3.1083e-17 
8315.50 3.3367e-17 
8317.00 2.5078e-17 
8318.50 1.9551e-17 
8320.00 1.7901e-17 
8321.50 2.4091e-17 
8323.00 2.3315e-17 
8324.50 2.8296e-17 
8326.00 2.9762e-17 
8327.50 2.5717e-17 
8329.00 2.1174e-17 
8330.50 3.0086e-17 
8332.00 3.0377e-17 
8333.50 2.8312e-17 
8335.00 2.9854e-17 
8336.50 2.1699e-17 
8338.00 2.1678e-17 
8339.50 1.9750e-17 
8341.00 1.4900e-17 
8342.50 4.1876e-18 
8344.00 8.0596e-18 
8345.50 4.4207e-17 
8347.00 6.6326e-17 
8348.50 3.8682e-17 
8350.00 2.6755e-17 
8351.50 2.2102e-17 
8353.00 2.3344e-17 
8354.50 2.9591e-17 
8356.00 4.0937e-17 
8357.50 2.1151e-17 
8359.00 2.1175e-17 
8360.50 2.3839e-17 
8362.00 2.2725e-17 
8363.50 1.2620e-17 
8365.00 1.4703e-17 
8366.50 1.9884e-17 
8368.00 2.5160e-17 
8369.50 2.1460e-17 
8371.00 2.0785e-17 
8372.50 2.6711e-17 
8374.00 2.8936e-17 
8375.50 2.2758e-17 
8377.00 2.9597e-17 
8378.50 2.9299e-17 
8380.00 2.3570e-17 
8381.50 1.8709e-17 
8383.00 3.6066e-17 
8384.50 4.2615e-17 
8386.00 3.3186e-17 
8387.50 2.3989e-17 
8389.00 2.1477e-17 
8390.50 2.7170e-17 
8392.00 2.2940e-17 
8393.50 2.4596e-17 
8395.00 2.9864e-17 
8396.50 3.1773e-17 
8398.00 1.9873e-17 
8399.50 2.1595e-17 
8401.00 2.9101e-17 
8402.50 4.1040e-17 
8404.00 3.2980e-17 
8405.50 2.6893e-17 
8407.00 2.4635e-17 
8408.50 2.4953e-17 
8410.00 2.0082e-17 
8411.50 2.3874e-17 
8413.00 2.6389e-17 
8414.50 2.4529e-17 
8416.00 1.2558e-17 
8417.50 1.6903e-17 
8419.00 3.5014e-17 
8420.50 4.3548e-17 
8422.00 4.0561e-17 
8423.50 4.2036e-17 
8425.00 2.4950e-17 
8426.50 1.5818e-17 
8428.00 1.6397e-17 
8429.50 3.9896e-17 
8431.00 1.9370e-17 
8432.50 3.4444e-17 
8434.00 3.8221e-17 
8435.50 1.5455e-17 
8437.00 3.1472e-17 
8438.50 2.5577e-17 
8440.00 2.2038e-17 
8441.50 2.0896e-17 
8443.00 2.3030e-17 
8444.50 2.6287e-17 
8446.00 3.2154e-17 
8447.50 3.7660e-17 
8449.00 4.0083e-17 
8450.50 2.2912e-17 
8452.00 2.4521e-17 
8453.50 2.6914e-17 
8455.00 2.8152e-17 
8456.50 3.3052e-17 
8458.00 2.7197e-17 
8459.50 2.2562e-17 
8461.00 1.9127e-17 
8462.50 1.7931e-17 
8464.00 2.9526e-17 
8465.50 9.8407e-18 
8467.00 3.6273e-18 
8468.50 4.5959e-17 
8470.00 4.4381e-17 
8471.50 4.1987e-17 
8473.00 3.7626e-17 
8474.50 3.1655e-17 
8476.00 3.5326e-17 
8477.50 3.5993e-17 
8479.00 3.8102e-17 
8480.50 3.8643e-17 
8482.00 2.5576e-17 
8483.50 2.0856e-17 
8485.00 2.1136e-17 
8486.50 2.2697e-17 
8488.00 2.4131e-17 
8489.50 2.0725e-17 
8491.00 2.9105e-17 
8492.50 3.1864e-17 
8494.00 2.6094e-17 
8495.50 3.4415e-17 
8497.00 3.4745e-17 
8498.50 3.2499e-17 
8500.00 2.8925e-17 
8501.50 2.9076e-17 
8503.00 2.2911e-17 
8504.50 1.8562e-17 
8506.00 2.0296e-17 
8507.50 4.1371e-17 
8509.00 2.9989e-17 
8510.50 2.5024e-17 
8512.00 2.3256e-17 
8513.50 2.5441e-17 
8515.00 2.8116e-17 
8516.50 2.4901e-17 
8518.00 2.5242e-17 
8519.50 2.9313e-17 
8521.00 2.3513e-17 
8522.50 2.5311e-17 
8524.00 2.4927e-17 
8525.50 2.4656e-17 
8527.00 3.5238e-17 
8528.50 2.6834e-17 
8530.00 2.6136e-17 
8531.50 2.8962e-17 
8533.00 3.4911e-17 
8534.50 3.6590e-17 
8536.00 2.6141e-17 
8537.50 2.1513e-17 
8539.00 3.3221e-17 
8540.50 3.1962e-17 
8542.00 2.7186e-17 
8543.50 2.1790e-17 
8545.00 1.6180e-17 
8546.50 3.3423e-17 
8548.00 2.7126e-17 
8549.50 2.6945e-17 
8551.00 3.1331e-17 
8552.50 3.2099e-17 
8554.00 3.2498e-17 
8555.50 3.1857e-17 
8557.00 2.9566e-17 
8558.50 2.0460e-17 
8560.00 3.1776e-17 
8561.50 3.1053e-17 
8563.00 2.7187e-17 
8564.50 2.4838e-17 
8566.00 3.1226e-17 
8567.50 2.5545e-17 
8569.00 2.3186e-17 
8570.50 3.2714e-17 
8572.00 2.0855e-17 
8573.50 3.0802e-17 
8575.00 3.4814e-17 
8576.50 2.7458e-17 
8578.00 3.7184e-17 
8579.50 3.6678e-17 
8581.00 3.0721e-17 
8582.50 2.0002e-17 
8584.00 2.1653e-17 
8585.50 2.1591e-17 
8587.00 1.7093e-17 
8588.50 1.1720e-17 
8590.00 3.5276e-17 
8591.50 3.1190e-17 
8593.00 3.3498e-17 
8594.50 3.5890e-17 
8596.00 1.6763e-17 
8597.50 2.6240e-17 
8599.00 3.1195e-17 
8600.50 3.2965e-17 
8602.00 2.7440e-17 
8603.50 2.4756e-17 
8605.00 2.7637e-17 
8606.50 3.1339e-17 
8608.00 3.3215e-17 
8609.50 4.0981e-17 
8611.00 2.6302e-17 
8612.50 1.7173e-17 
8614.00 3.0889e-17 
8615.50 3.6685e-17 
8617.00 3.0579e-17 
8618.50 3.0197e-17 
8620.00 4.3098e-17 
8621.50 4.5430e-17 
8623.00 3.3951e-17 
8624.50 3.3692e-17 
8626.00 5.1447e-17 
8627.50 2.6659e-17 
8629.00 2.8569e-17 
8630.50 3.2508e-17 
8632.00 3.7587e-17 
8633.50 3.9676e-17 
8635.00 3.2525e-17 
8636.50 2.5433e-17 
8638.00 1.8804e-17 
8639.50 3.1080e-17 
8641.00 4.7261e-17 
8642.50 4.8675e-17 
8644.00 3.7267e-17 
8645.50 1.7182e-17 
8647.00 2.0418e-17 
8648.50 1.8751e-17 
8650.00 1.4889e-17 
8651.50 3.5562e-17 
8653.00 3.4674e-17 
8654.50 2.5236e-17 
8656.00 1.1142e-17 
8657.50 1.0222e-17 
8659.00 2.0733e-18 
8660.50 1.1261e-17 
8662.00 2.9720e-17 
8663.50 3.9322e-17 
8665.00 2.6086e-17 
8666.50 1.3916e-17 
8668.00 3.4292e-18 
8669.50 6.3775e-18 
8671.00 2.2781e-17 
8672.50 2.8859e-17 
8674.00 2.8647e-17 
8675.50 1.6657e-17 
8677.00 1.3544e-17 
8678.50 1.6983e-17 
8680.00 2.4300e-17 
8681.50 3.7771e-17 
8683.00 3.3766e-17 
8684.50 2.8398e-17 
8686.00 2.3047e-17 
8687.50 2.4074e-17 
8689.00 1.7028e-17 
8690.50 2.4015e-17 
8692.00 3.4445e-17 
8693.50 1.8818e-17 
8695.00 3.4160e-17 
8696.50 3.3409e-17 
8698.00 2.6655e-17 
8699.50 3.3837e-17 
8701.00 3.0453e-17 
8702.50 3.2408e-17 
8704.00 3.6607e-17 
8705.50 3.6755e-17 
8707.00 3.3180e-17 
8708.50 2.4705e-17 
8710.00 1.5268e-17 
8711.50 2.7306e-17 
8713.00 3.2482e-17 
8714.50 2.9998e-17 
8716.00 2.3556e-17 
8717.50 2.5055e-17 
8719.00 2.2629e-17 
8720.50 2.3914e-17 
8722.00 2.7254e-17 
8723.50 2.3219e-17 
8725.00 3.2035e-17 
8726.50 3.4447e-17 
8728.00 3.2244e-17 
8729.50 3.0305e-17 
8731.00 2.6765e-17 
8732.50 2.2552e-17 
8734.00 1.7699e-17 
8735.50 2.5109e-17 
8737.00 2.4633e-17 
8738.50 3.1256e-17 
8740.00 4.5554e-17 
8741.50 2.9318e-17 
8743.00 2.9681e-17 
8744.50 2.8697e-17 
8746.00 2.5514e-17 
8747.50 3.3826e-17 
8749.00 3.2652e-17 
8750.50 3.0867e-17 
8752.00 2.8704e-17 
8753.50 1.9268e-17 
8755.00 2.3458e-17 
8756.50 2.4289e-17 
8758.00 1.5613e-17 
8759.50 2.2314e-17 
8761.00 2.0647e-17 
8762.50 2.1688e-17 
8764.00 3.3591e-17 
8765.50 2.8871e-17 
8767.00 1.3096e-17 
8768.50 -4.9237e-18
8770.00 -2.3814e-17
8771.50 -2.0882e-17
8773.00 1.4504e-18 
8774.50 2.3853e-17 
8776.00 1.2617e-17 
8777.50 1.7463e-17 
8779.00 5.0972e-18 
8780.50 -1.1091e-17
8782.00 7.3900e-18 
8783.50 2.7738e-17 
8785.00 3.4355e-17 
8786.50 3.2946e-17 
8788.00 2.2871e-17 
8789.50 1.7803e-17 
8791.00 2.5710e-17 
8792.50 4.5233e-17 
8794.00 3.7230e-17 
8795.50 3.0313e-17 
8797.00 2.6535e-17 
8798.50 2.6633e-17 
8800.00 2.6728e-17 
8801.50 3.2662e-17 
8803.00 3.3493e-17 
8804.50 2.2963e-17 
8806.00 3.3332e-17 
8807.50 2.8605e-17 
8809.00 2.3908e-17 
8810.50 2.6220e-17 
8812.00 2.8446e-17 
8813.50 2.1351e-17 
8815.00 1.4495e-17 
8816.50 2.4146e-17 
8818.00 3.1796e-17 
8819.50 2.8644e-17 
8821.00 2.1603e-17 
8822.50 2.8427e-17 
8824.00 4.4491e-17 
8825.50 1.9732e-17 
8827.00 -3.6988e-17
8828.50 7.8541e-17 
8830.00 -6.8475e-18
8831.50 -1.1718e-17
8833.00 9.2195e-17 
8834.50 4.1525e-17 
8836.00 9.5924e-18 
8837.50 2.6468e-18 
8839.00 5.0993e-17 
8840.50 1.8508e-17 
8842.00 1.4616e-17 
8843.50 1.5938e-17 
8845.00 1.6774e-17 
8846.50 2.1488e-17 
8848.00 2.0744e-17 
8849.50 1.8017e-17 
8851.00 1.6369e-17 
8852.50 3.5454e-17 
8854.00 3.4369e-17 
8855.50 1.8917e-17 
8857.00 2.2396e-17 
8858.50 2.7652e-17 
8860.00 3.1897e-17 
8861.50 3.5191e-17 
8863.00 2.7811e-17 
8864.50 1.8546e-17 
8866.00 2.0622e-17 
8867.50 5.6811e-17 
8869.00 5.3403e-17 
8870.50 2.6566e-17 
8872.00 2.4608e-18 
8873.50 4.1616e-17 
8875.00 1.7282e-17 
8876.50 1.4167e-17 
8878.00 2.2490e-17 
8879.50 3.9119e-17 
8881.00 3.5635e-17 
8882.50 3.4528e-17 
8884.00 3.6103e-17 
8885.50 9.9584e-18 
8887.00 5.8740e-18 
8888.50 5.6936e-18 
8890.00 1.1559e-17 
8891.50 6.5401e-17 
8893.00 4.3117e-17 
8894.50 9.7007e-18 
8896.00 2.5638e-17 
8897.50 2.5798e-17 
8899.00 2.4465e-17 
8900.50 2.1940e-17 
8902.00 2.5133e-18 
8903.50 2.1759e-17 
8905.00 2.9061e-17 
8906.50 2.0813e-17 
8908.00 5.8053e-17 
8909.50 3.6735e-17 
8911.00 1.6575e-17 
8912.50 1.9033e-17 
8914.00 7.9170e-18 
8915.50 8.6566e-18 
8917.00 1.2119e-17 
8918.50 1.9884e-18 
8920.00 -3.5146e-17
8921.50 -4.5688e-17
8923.00 -3.5290e-17
8924.50 1.6924e-17 
8926.00 2.3612e-17 
8927.50 2.7124e-17 
8929.00 2.7987e-17 
8930.50 2.6551e-17 
8932.00 3.0609e-17 
8933.50 3.4874e-17 
8935.00 3.1921e-17 
8936.50 3.1591e-17 
8938.00 3.0510e-17 
8939.50 2.8858e-17 
8941.00 3.1412e-17 
8942.50 1.9613e-17 
8944.00 1.3730e-18 
8945.50 -3.1912e-17
8947.00 2.1491e-17 
8948.50 2.0879e-17 
8950.00 1.3083e-17 
8951.50 1.4655e-17 
8953.00 2.8284e-17 
8954.50 2.3409e-17 
8956.00 8.5134e-18 
8957.50 2.6274e-17 
8959.00 1.2897e-17 
8960.50 8.8621e-18 
8962.00 1.9871e-17 
8963.50 1.2907e-17 
8965.00 1.9742e-17 
8966.50 2.7870e-17 
8968.00 3.0810e-17 
8969.50 3.2991e-17 
8971.00 2.4369e-17 
8972.50 8.7311e-18 
8974.00 1.3784e-17 
8975.50 1.8728e-17 
8977.00 1.8453e-17 
8978.50 8.0398e-18 
8980.00 1.8687e-17 
8981.50 1.9366e-17 
8983.00 1.8604e-17 
8984.50 2.1330e-17 
8986.00 2.2151e-17 
8987.50 2.0085e-17 
8989.00 1.5616e-17 
8990.50 1.5284e-17 
8992.00 1.1708e-17 
8993.50 1.4805e-17 
8995.00 3.6495e-17 
8996.50 2.7624e-17 
8998.00 2.7252e-17 
8999.50 2.8546e-17 
9001.00 2.0225e-17 
9002.50 -1.4054e-18
9004.00 -1.3961e-17
9005.50 -1.9678e-17
9007.00 4.1165e-18 
9008.50 9.8771e-18 
9010.00 1.3457e-17 
9011.50 1.5889e-17 
9013.00 2.7077e-17 
9014.50 2.8224e-17 
9016.00 2.4672e-17 
9017.50 2.1978e-17 
9019.00 1.8780e-17 
9020.50 1.9707e-17 
9022.00 2.9422e-17 
9023.50 1.8802e-17 
9025.00 1.1454e-17 
9026.50 7.0452e-18 
9028.00 2.9734e-17 
9029.50 2.0217e-17 
9031.00 1.7438e-17 
9032.50 2.0839e-17 
9034.00 2.2929e-17 
9035.50 2.5765e-17 
9037.00 2.5032e-17 
9038.50 6.4848e-18 
9040.00 2.4183e-17 
9041.50 4.3117e-17 
9043.00 6.5800e-17 
9044.50 2.9969e-18 
9046.00 7.3927e-18 
9047.50 4.9676e-18 
9049.00 -1.9867e-17
9050.50 8.5755e-18 
9052.00 2.5797e-17 
9053.50 3.9930e-17 
9055.00 2.8292e-17 
9056.50 1.5563e-17 
9058.00 1.1509e-17 
9059.50 2.0129e-17 
9061.00 2.7804e-17 
9062.50 1.8871e-17 
9064.00 8.2853e-18 
9065.50 1.6767e-17 
9067.00 2.3082e-17 
9068.50 2.1082e-17 
9070.00 9.6068e-18 
9071.50 1.9779e-17 
9073.00 2.1884e-17 
9074.50 2.3729e-17 
9076.00 3.0110e-17 
9077.50 2.5872e-17 
9079.00 2.0029e-17 
9080.50 1.1509e-17 
9082.00 4.9446e-17 
9083.50 3.4317e-17 
9085.00 1.7347e-17 
9086.50 4.7147e-18 
9088.00 2.4866e-17 
9089.50 2.9488e-17 
9091.00 2.6179e-17 
9092.50 1.6448e-17 
9094.00 2.8314e-17 
9095.50 3.2060e-17 
9097.00 5.5725e-18 
9098.50 1.7070e-17 
9100.00 1.9400e-17 
9101.50 1.7781e-17 
9103.00 8.2218e-18 
9104.50 4.0474e-17 
9106.00 5.6028e-17 
9107.50 2.4136e-17 
9109.00 3.6968e-17 
9110.50 3.1227e-17 
9112.00 1.6931e-17 
9113.50 1.0956e-17 
9115.00 1.3521e-17 
9116.50 1.8549e-17 
9118.00 3.1897e-17 
9119.50 3.2445e-17 
9121.00 3.2566e-17 
9122.50 3.2533e-17 
9124.00 2.5977e-17 
9125.50 2.2260e-17 
9127.00 2.0160e-17 
9128.50 2.1942e-17 
9130.00 2.1919e-17 
9131.50 2.5249e-17 
9133.00 3.0453e-17 
9134.50 2.7567e-17 
9136.00 2.0356e-17 
9137.50 1.2552e-17 
9139.00 3.7490e-19 
9140.50 2.0965e-17 
9142.00 2.8951e-17 
9143.50 3.2540e-17 
9145.00 2.0034e-17 
9146.50 2.2635e-17 
9148.00 2.1481e-17 
9149.50 4.4330e-18 
9151.00 2.4458e-17 
9152.50 3.0694e-17 
9154.00 3.0583e-17 
9155.50 1.9061e-17 
9157.00 2.8468e-17 
9158.50 3.5019e-17 
9160.00 2.3813e-17 
9161.50 2.4209e-17 
9163.00 2.7351e-17 
9164.50 3.3518e-17 
9166.00 1.1766e-17 
9167.50 2.1735e-17 
9169.00 3.1694e-17 
9170.50 2.0752e-17 
9172.00 1.4983e-17 
9173.50 1.0469e-17 
9175.00 5.5214e-18 
9176.50 1.6392e-17 
9178.00 2.4938e-17 
9179.50 3.2024e-17 
9181.00 1.9966e-17 
9182.50 2.5779e-17 
9184.00 2.6199e-17 
9185.50 1.8007e-17 
9187.00 3.9826e-18 
9188.50 9.8262e-18 
9190.00 2.1925e-17 
9191.50 4.5400e-17 
9193.00 2.6730e-17 
9194.50 1.6622e-17 
9196.00 2.5786e-17 
9197.50 7.4146e-18 
9199.00 9.4332e-18 
9200.50 2.1836e-17 
9202.00 2.1151e-17 
9203.50 2.6895e-17 
9205.00 3.0053e-17 
9206.50 1.8548e-17 
9208.00 0
9209.50 0
9211.00 0
9212.50 0
9214.00 0
9215.50 0
9217.00 0
9218.50 0
9220.00 0
9221.50 0
9223.00 0
9224.50 0
9226.00 0
9227.50 0
9229.00 0
9230.50 0
9232.00 0
9233.50 0
9235.00 0
9236.50 0
9238.00 0
9239.50 0
9241.00 0
9242.50 0
9244.00 0
9245.50 0
9247.00 0
9248.50 0
9250.00 0
9251.50 0
9253.00 0
9254.50 0
9256.00 0
9257.50 0
9259.00 0
9260.50 0
9262.00 0
9263.50 0
9265.00 0
9266.50 0
9268.00 0
9269.50 0
9271.00 0
9272.50 0
9274.00 0
9275.50 0
9277.00 0
9278.50 0
9280.00 0
9281.50 0
9283.00 0
9284.50 0
9286.00 0
9287.50 0
9289.00 0
9290.50 0
9292.00 0
9293.50 0
9295.00 0
9296.50 0
9298.00 0
9299.50 0
9301.00 0
9302.50 0
9304.00 0
9305.50 0
9307.00 0
9308.50 0
9310.00 0
9311.50 0
9313.00 0
9314.50 0
9316.00 0
9317.50 0
9319.00 0
9320.50 0
9322.00 0
9323.50 0
9325.00 0
9326.50 0
9328.00 0
9329.50 0
9331.00 0
9332.50 0
9334.00 0
9335.50 0
9337.00 0
9338.50 0
9340.00 0
9341.50 0
9343.00 0
9344.50 0
9346.00 0
9347.50 0
9349.00 0
9350.50 0
9352.00 0
9353.50 0
9355.00 0
9356.50 0
9358.00 0
9359.50 0
9361.00 0
9362.50 0
9364.00 0
9365.50 0
9367.00 0
9368.50 0
9370.00 0
9371.50 0
9373.00 0
9374.50 0
9376.00 0
9377.50 0
9379.00 0
9380.50 0
9382.00 0
9383.50 0
9385.00 0
9386.50 0
9388.00 0
9389.50 0
9391.00 0
9392.50 0
9394.00 0
9395.50 0
9397.00 0
9398.50 0
9400.00 0
9401.50 0
9403.00 0
9404.50 0
9406.00 0
9407.50 0
9409.00 0
9410.50 0
9412.00 0
9413.50 0
9415.00 0
9416.50 0
9418.00 0
9419.50 0
9421.00 0
9422.50 0
9424.00 0
9425.50 0
9427.00 0
9428.50 0
9430.00 0
9431.50 0
9433.00 0
9434.50 0
9436.00 0
9437.50 0
9439.00 0
9440.50 0
9442.00 0
9443.50 0
9445.00 0
9446.50 0
9448.00 0
9449.50 0
9451.00 0
9452.50 0
9454.00 0
9455.50 0
9457.00 0
9458.50 0
9460.00 0
9461.50 0
9463.00 0
9464.50 0
9466.00 0
9467.50 0
9469.00 0
9470.50 0
9472.00 0
9473.50 0
9475.00 0
9476.50 0
9478.00 0
9479.50 0
9481.00 0
9482.50 0
9484.00 0
9485.50 0
9487.00 0
9488.50 0
9490.00 0
9491.50 0
9493.00 0
9494.50 0
9496.00 0
9497.50 0
9499.00 0
9500.50 0
9502.00 0
9503.50 0
9505.00 0
9506.50 0
9508.00 0
9509.50 0
9511.00 0
9512.50 0
9514.00 0
9515.50 0
9517.00 0
9518.50 0
9520.00 0
9521.50 0
9523.00 0
9524.50 0
9526.00 0
9527.50 0
9529.00 0
9530.50 0
9532.00 0
9533.50 0
9535.00 0
9536.50 0
9538.00 0
9539.50 0
9541.00 0
9542.50 0
9544.00 0
9545.50 0
9547.00 0
9548.50 0
9550.00 0
9551.50 0
9553.00 0
9554.50 0
9556.00 0
9557.50 0
9559.00 0
9560.50 0
9562.00 0
9563.50 0
9565.00 0
9566.50 0
9568.00 0
9569.50 0
9571.00 0
9572.50 0
9574.00 0
9575.50 0
9577.00 0
9578.50 0
9580.00 0
9581.50 0
9583.00 0
9584.50 0
9586.00 0
9587.50 0
9589.00 0
9590.50 0
9592.00 0
9593.50 0
9595.00 0
9596.50 0
9598.00 0
9599.50 0
