Wavelength (Angstroms) Flux (erg/s/cm2/A)
# start
3400.00 0
3401.50 0
3403.00 0
3404.50 0
3406.00 0
3407.50 0
3409.00 0
3410.50 0
3412.00 0
3413.50 0
3415.00 0
3416.50 0
3418.00 0
3419.50 0
3421.00 0
3422.50 0
3424.00 0
3425.50 0
3427.00 0
3428.50 0
3430.00 0
3431.50 0
3433.00 0
3434.50 0
3436.00 0
3437.50 0
3439.00 0
3440.50 0
3442.00 0
3443.50 0
3445.00 0
3446.50 0
3448.00 0
3449.50 0
3451.00 0
3452.50 0
3454.00 0
3455.50 0
3457.00 0
3458.50 0
3460.00 0
3461.50 0
3463.00 0
3464.50 0
3466.00 0
3467.50 0
3469.00 0
3470.50 0
3472.00 0
3473.50 0
3475.00 0
3476.50 0
3478.00 0
3479.50 0
3481.00 0
3482.50 0
3484.00 0
3485.50 0
3487.00 0
3488.50 0
3490.00 0
3491.50 0
3493.00 0
3494.50 0
3496.00 0
3497.50 0
3499.00 0
3500.50 0
3502.00 0
3503.50 0
3505.00 0
3506.50 0
3508.00 0
3509.50 0
3511.00 0
3512.50 0
3514.00 0
3515.50 0
3517.00 0
3518.50 0
3520.00 0
3521.50 0
3523.00 0
3524.50 0
3526.00 0
3527.50 0
3529.00 0
3530.50 0
3532.00 0
3533.50 0
3535.00 0
3536.50 0
3538.00 0
3539.50 0
3541.00 0
3542.50 0
3544.00 0
3545.50 0
3547.00 0
3548.50 0
3550.00 0
3551.50 0
3553.00 0
3554.50 0
3556.00 0
3557.50 0
3559.00 0
3560.50 0
3562.00 0
3563.50 0
3565.00 0
3566.50 0
3568.00 0
3569.50 0
3571.00 0
3572.50 0
3574.00 0
3575.50 0
3577.00 0
3578.50 0
3580.00 0
3581.50 0
3583.00 0
3584.50 0
3586.00 0
3587.50 0
3589.00 0
3590.50 0
3592.00 0
3593.50 0
3595.00 0
3596.50 0
3598.00 0
3599.50 0
3601.00 0
3602.50 0
3604.00 0
3605.50 0
3607.00 0
3608.50 0
3610.00 0
3611.50 0
3613.00 0
3614.50 0
3616.00 0
3617.50 0
3619.00 0
3620.50 0
3622.00 0
3623.50 0
3625.00 0
3626.50 0
3628.00 0
3629.50 0
3631.00 0
3632.50 0
3634.00 0
3635.50 0
3637.00 0
3638.50 0
3640.00 0
3641.50 0
3643.00 0
3644.50 0
3646.00 0
3647.50 0
3649.00 0
3650.50 0
3652.00 0
3653.50 0
3655.00 0
3656.50 0
3658.00 0
3659.50 0
3661.00 0
3662.50 0
3664.00 0
3665.50 0
3667.00 0
3668.50 0
3670.00 0
3671.50 0
3673.00 0
3674.50 0
3676.00 0
3677.50 0
3679.00 0
3680.50 0
3682.00 0
3683.50 0
3685.00 0
3686.50 0
3688.00 0
3689.50 0
3691.00 0
3692.50 0
3694.00 0
3695.50 0
3697.00 0
3698.50 0
3700.00 0
3701.50 0
3703.00 0
3704.50 0
3706.00 0
3707.50 0
3709.00 0
3710.50 0
3712.00 0
3713.50 0
3715.00 0
3716.50 0
3718.00 0
3719.50 0
3721.00 0
3722.50 0
3724.00 0
3725.50 0
3727.00 0
3728.50 0
3730.00 0
3731.50 0
3733.00 0
3734.50 0
3736.00 0
3737.50 0
3739.00 0
3740.50 0
3742.00 0
3743.50 0
3745.00 0
3746.50 0
3748.00 0
3749.50 0
3751.00 0
3752.50 0
3754.00 0
3755.50 0
3757.00 0
3758.50 0
3760.00 0
3761.50 0
3763.00 0
3764.50 0
3766.00 0
3767.50 0
3769.00 0
3770.50 0
3772.00 0
3773.50 0
3775.00 0
3776.50 0
3778.00 0
3779.50 0
3781.00 0
3782.50 0
3784.00 0
3785.50 0
3787.00 0
3788.50 0
3790.00 0
3791.50 0
3793.00 0
3794.50 0
3796.00 0
3797.50 4.3306e-17 
3799.00 6.4934e-17 
3800.50 6.5757e-17 
3802.00 7.9231e-17 
3803.50 7.9169e-17 
3805.00 6.7656e-17 
3806.50 6.7898e-17 
3808.00 8.8270e-17 
3809.50 5.7808e-17 
3811.00 5.4437e-17 
3812.50 7.9727e-17 
3814.00 9.0717e-17 
3815.50 7.2151e-17 
3817.00 5.2122e-17 
3818.50 5.1383e-17 
3820.00 6.8484e-17 
3821.50 6.3185e-17 
3823.00 6.0093e-17 
3824.50 6.1088e-17 
3826.00 6.9877e-17 
3827.50 7.1561e-17 
3829.00 5.2370e-17 
3830.50 7.6888e-17 
3832.00 8.3687e-17 
3833.50 7.5075e-17 
3835.00 5.4213e-17 
3836.50 7.1267e-17 
3838.00 5.3448e-17 
3839.50 5.9716e-17 
3841.00 7.9778e-17 
3842.50 6.1732e-17 
3844.00 9.2436e-17 
3845.50 6.0259e-17 
3847.00 5.7650e-17 
3848.50 8.4507e-17 
3850.00 8.1801e-17 
3851.50 7.1606e-17 
3853.00 8.7636e-17 
3854.50 6.6669e-17 
3856.00 5.8467e-17 
3857.50 7.4790e-17 
3859.00 9.3924e-17 
3860.50 8.5461e-17 
3862.00 6.7721e-17 
3863.50 7.9926e-17 
3865.00 6.8208e-17 
3866.50 5.4913e-17 
3868.00 5.3089e-17 
3869.50 7.7794e-17 
3871.00 7.9840e-17 
3872.50 7.6577e-17 
3874.00 6.9179e-17 
3875.50 5.4044e-17 
3877.00 6.8086e-17 
3878.50 5.2451e-17 
3880.00 4.5339e-17 
3881.50 6.0001e-17 
3883.00 6.2203e-17 
3884.50 8.8136e-17 
3886.00 7.3226e-17 
3887.50 8.3158e-17 
3889.00 6.2812e-17 
3890.50 8.5147e-17 
3892.00 7.5339e-17 
3893.50 1.0869e-16 
3895.00 7.4711e-17 
3896.50 6.0001e-17 
3898.00 7.6222e-17 
3899.50 1.0404e-16 
3901.00 9.1590e-17 
3902.50 4.7344e-17 
3904.00 6.3626e-17 
3905.50 6.3640e-17 
3907.00 5.0300e-17 
3908.50 6.1458e-17 
3910.00 6.5623e-17 
3911.50 9.3351e-17 
3913.00 7.1891e-17 
3914.50 6.8263e-17 
3916.00 9.2994e-17 
3917.50 9.4293e-17 
3919.00 7.2745e-17 
3920.50 9.2002e-17 
3922.00 6.5015e-17 
3923.50 8.3516e-17 
3925.00 5.7783e-17 
3926.50 6.0236e-17 
3928.00 7.2680e-17 
3929.50 8.2266e-17 
3931.00 5.9672e-17 
3932.50 8.7879e-17 
3934.00 7.1610e-17 
3935.50 6.0840e-17 
3937.00 9.3985e-17 
3938.50 7.9894e-17 
3940.00 7.1699e-17 
3941.50 5.6161e-17 
3943.00 6.5324e-17 
3944.50 7.2388e-17 
3946.00 7.3998e-17 
3947.50 8.1871e-17 
3949.00 8.7131e-17 
3950.50 5.9671e-17 
3952.00 6.8033e-17 
3953.50 6.3384e-17 
3955.00 8.2408e-17 
3956.50 8.6361e-17 
3958.00 8.5851e-17 
3959.50 5.8139e-17 
3961.00 6.2457e-17 
3962.50 7.9438e-17 
3964.00 8.0518e-17 
3965.50 5.9177e-17 
3967.00 6.5645e-17 
3968.50 7.2745e-17 
3970.00 7.2508e-17 
3971.50 7.2448e-17 
3973.00 8.0202e-17 
3974.50 6.8062e-17 
3976.00 5.5775e-17 
3977.50 6.6857e-17 
3979.00 5.9369e-17 
3980.50 6.7293e-17 
3982.00 7.2271e-17 
3983.50 6.3444e-17 
3985.00 9.8244e-17 
3986.50 6.9690e-17 
3988.00 5.5710e-17 
3989.50 7.7475e-17 
3991.00 8.8638e-17 
3992.50 8.8792e-17 
3994.00 7.5400e-17 
3995.50 6.8339e-17 
3997.00 7.1786e-17 
3998.50 6.6501e-17 
4000.00 7.8145e-17 
4001.50 8.2583e-17 
4003.00 9.4754e-17 
4004.50 5.8323e-17 
4006.00 7.5342e-17 
4007.50 7.3429e-17 
4009.00 6.6031e-17 
4010.50 8.1804e-17 
4012.00 7.2402e-17 
4013.50 6.2689e-17 
4015.00 6.1739e-17 
4016.50 7.1789e-17 
4018.00 7.0989e-17 
4019.50 6.1475e-17 
4021.00 5.7230e-17 
4022.50 5.8582e-17 
4024.00 8.2397e-17 
4025.50 7.5962e-17 
4027.00 8.7039e-17 
4028.50 5.3929e-17 
4030.00 8.8368e-17 
4031.50 7.3243e-17 
4033.00 6.4766e-17 
4034.50 8.0044e-17 
4036.00 6.1547e-17 
4037.50 7.4927e-17 
4039.00 7.6683e-17 
4040.50 7.2595e-17 
4042.00 6.3290e-17 
4043.50 6.4919e-17 
4045.00 6.5776e-17 
4046.50 6.5116e-17 
4048.00 6.7663e-17 
4049.50 6.4415e-17 
4051.00 8.8172e-17 
4052.50 6.0835e-17 
4054.00 6.2916e-17 
4055.50 6.4672e-17 
4057.00 4.4442e-17 
4058.50 5.7318e-17 
4060.00 7.8349e-17 
4061.50 6.3094e-17 
4063.00 4.9937e-17 
4064.50 5.8458e-17 
4066.00 6.5526e-17 
4067.50 4.8721e-17 
4069.00 5.4064e-17 
4070.50 8.0263e-17 
4072.00 4.9562e-17 
4073.50 5.1246e-17 
4075.00 6.5650e-17 
4076.50 5.6635e-17 
4078.00 6.8535e-17 
4079.50 6.9791e-17 
4081.00 7.1699e-17 
4082.50 8.6213e-17 
4084.00 6.3688e-17 
4085.50 6.8562e-17 
4087.00 6.2849e-17 
4088.50 6.5170e-17 
4090.00 3.8543e-17 
4091.50 6.1077e-17 
4093.00 6.1753e-17 
4094.50 4.9985e-17 
4096.00 5.6504e-17 
4097.50 7.4897e-17 
4099.00 7.4288e-17 
4100.50 4.3359e-17 
4102.00 6.3612e-17 
4103.50 6.1147e-17 
4105.00 7.5364e-17 
4106.50 6.1372e-17 
4108.00 6.8417e-17 
4109.50 6.6727e-17 
4111.00 6.6827e-17 
4112.50 5.5583e-17 
4114.00 5.4707e-17 
4115.50 6.3052e-17 
4117.00 4.8134e-17 
4118.50 6.3484e-17 
4120.00 6.4652e-17 
4121.50 6.1963e-17 
4123.00 7.1108e-17 
4124.50 8.3950e-17 
4126.00 6.2058e-17 
4127.50 7.7339e-17 
4129.00 5.6749e-17 
4130.50 7.0156e-17 
4132.00 6.4944e-17 
4133.50 5.8547e-17 
4135.00 5.0900e-17 
4136.50 5.9700e-17 
4138.00 7.3259e-17 
4139.50 6.1204e-17 
4141.00 6.7141e-17 
4142.50 5.9814e-17 
4144.00 6.2701e-17 
4145.50 6.1155e-17 
4147.00 3.8418e-17 
4148.50 5.9569e-17 
4150.00 4.7336e-17 
4151.50 5.8136e-17 
4153.00 5.2966e-17 
4154.50 4.9239e-17 
4156.00 6.7236e-17 
4157.50 6.5328e-17 
4159.00 8.0423e-17 
4160.50 5.0344e-17 
4162.00 5.5195e-17 
4163.50 6.3654e-17 
4165.00 6.2159e-17 
4166.50 7.1859e-17 
4168.00 6.1382e-17 
4169.50 4.9652e-17 
4171.00 4.9010e-17 
4172.50 7.4594e-17 
4174.00 7.6344e-17 
4175.50 6.2703e-17 
4177.00 6.8350e-17 
4178.50 6.5686e-17 
4180.00 6.4650e-17 
4181.50 8.8327e-17 
4183.00 6.3179e-17 
4184.50 5.9049e-17 
4186.00 6.2061e-17 
4187.50 6.3009e-17 
4189.00 4.9607e-17 
4190.50 6.2399e-17 
4192.00 6.9097e-17 
4193.50 7.0205e-17 
4195.00 5.2976e-17 
4196.50 5.1994e-17 
4198.00 5.4004e-17 
4199.50 6.0831e-17 
4201.00 6.6175e-17 
4202.50 6.7323e-17 
4204.00 6.1478e-17 
4205.50 5.7821e-17 
4207.00 5.7807e-17 
4208.50 6.7194e-17 
4210.00 4.8208e-17 
4211.50 5.9142e-17 
4213.00 7.3113e-17 
4214.50 4.6991e-17 
4216.00 5.4315e-17 
4217.50 6.4535e-17 
4219.00 7.7241e-17 
4220.50 6.6690e-17 
4222.00 5.7597e-17 
4223.50 5.8143e-17 
4225.00 5.0538e-17 
4226.50 6.8550e-17 
4228.00 6.7658e-17 
4229.50 7.2626e-17 
4231.00 6.0513e-17 
4232.50 6.5907e-17 
4234.00 7.2928e-17 
4235.50 7.1327e-17 
4237.00 8.1342e-17 
4238.50 6.2256e-17 
4240.00 6.5046e-17 
4241.50 6.2116e-17 
4243.00 6.7104e-17 
4244.50 7.2796e-17 
4246.00 6.9496e-17 
4247.50 6.0545e-17 
4249.00 6.8721e-17 
4250.50 6.5712e-17 
4252.00 6.8906e-17 
4253.50 5.2125e-17 
4255.00 5.0517e-17 
4256.50 6.7730e-17 
4258.00 6.6056e-17 
4259.50 6.8873e-17 
4261.00 6.2519e-17 
4262.50 5.3872e-17 
4264.00 7.6665e-17 
4265.50 5.8402e-17 
4267.00 6.3910e-17 
4268.50 7.2032e-17 
4270.00 5.9438e-17 
4271.50 6.8253e-17 
4273.00 6.4723e-17 
4274.50 5.9123e-17 
4276.00 6.4682e-17 
4277.50 7.6240e-17 
4279.00 6.4492e-17 
4280.50 6.7268e-17 
4282.00 6.5809e-17 
4283.50 6.2777e-17 
4285.00 6.0550e-17 
4286.50 7.0258e-17 
4288.00 5.5321e-17 
4289.50 8.3489e-17 
4291.00 7.8218e-17 
4292.50 5.5420e-17 
4294.00 6.8168e-17 
4295.50 6.8599e-17 
4297.00 6.6868e-17 
4298.50 6.7488e-17 
4300.00 7.1100e-17 
4301.50 6.7466e-17 
4303.00 7.1884e-17 
4304.50 6.5271e-17 
4306.00 7.3890e-17 
4307.50 6.5452e-17 
4309.00 6.0690e-17 
4310.50 6.1213e-17 
4312.00 5.5919e-17 
4313.50 6.0030e-17 
4315.00 6.6826e-17 
4316.50 7.1550e-17 
4318.00 6.5957e-17 
4319.50 7.5871e-17 
4321.00 6.3837e-17 
4322.50 7.9994e-17 
4324.00 7.7627e-17 
4325.50 7.5579e-17 
4327.00 5.9082e-17 
4328.50 6.5209e-17 
4330.00 7.3450e-17 
4331.50 7.0376e-17 
4333.00 6.7004e-17 
4334.50 6.5381e-17 
4336.00 5.3162e-17 
4337.50 6.6657e-17 
4339.00 7.4377e-17 
4340.50 8.9177e-17 
4342.00 7.1016e-17 
4343.50 7.1244e-17 
4345.00 7.2400e-17 
4346.50 7.7414e-17 
4348.00 8.8982e-17 
4349.50 8.0569e-17 
4351.00 8.1994e-17 
4352.50 8.1365e-17 
4354.00 8.0805e-17 
4355.50 8.6194e-17 
4357.00 7.8904e-17 
4358.50 7.9482e-17 
4360.00 1.0242e-16 
4361.50 8.9931e-17 
4363.00 9.7080e-17 
4364.50 8.1437e-17 
4366.00 7.8575e-17 
4367.50 7.8482e-17 
4369.00 7.0655e-17 
4370.50 5.6208e-17 
4372.00 5.5845e-17 
4373.50 7.9332e-17 
4375.00 6.1819e-17 
4376.50 4.9273e-17 
4378.00 4.5254e-17 
4379.50 4.3010e-17 
4381.00 4.4747e-17 
4382.50 4.1228e-17 
4384.00 4.9209e-17 
4385.50 5.0340e-17 
4387.00 5.8258e-17 
4388.50 5.7212e-17 
4390.00 6.5663e-17 
4391.50 7.8312e-17 
4393.00 8.4193e-17 
4394.50 8.1699e-17 
4396.00 6.6712e-17 
4397.50 5.4574e-17 
4399.00 4.7210e-17 
4400.50 6.7303e-17 
4402.00 5.7178e-17 
4403.50 3.5870e-17 
4405.00 2.8674e-17 
4406.50 3.2372e-17 
4408.00 4.4505e-17 
4409.50 2.5174e-17 
4411.00 2.3504e-17 
4412.50 3.8931e-17 
4414.00 4.9569e-17 
4415.50 6.0634e-17 
4417.00 4.5269e-17 
4418.50 5.4142e-17 
4420.00 6.8146e-17 
4421.50 8.0537e-17 
4423.00 1.0779e-16 
4424.50 1.1994e-16 
4426.00 1.1627e-16 
4427.50 1.1531e-16 
4429.00 9.1165e-17 
4430.50 1.0386e-16 
4432.00 1.0773e-16 
4433.50 1.0988e-16 
4435.00 1.0266e-16 
4436.50 9.2745e-17 
4438.00 9.7811e-17 
4439.50 1.0796e-16 
4441.00 9.9487e-17 
4442.50 9.4350e-17 
4444.00 1.0231e-16 
4445.50 1.0309e-16 
4447.00 9.2450e-17 
4448.50 9.4617e-17 
4450.00 8.4511e-17 
4451.50 9.6623e-17 
4453.00 9.1938e-17 
4454.50 9.0146e-17 
4456.00 9.1485e-17 
4457.50 8.6719e-17 
4459.00 8.6401e-17 
4460.50 9.2354e-17 
4462.00 9.4702e-17 
4463.50 8.3381e-17 
4465.00 8.4769e-17 
4466.50 7.8644e-17 
4468.00 8.8696e-17 
4469.50 8.8817e-17 
4471.00 8.0387e-17 
4472.50 8.4833e-17 
4474.00 8.7519e-17 
4475.50 7.6958e-17 
4477.00 8.1072e-17 
4478.50 8.4570e-17 
4480.00 7.9894e-17 
4481.50 6.5645e-17 
4483.00 7.2715e-17 
4484.50 8.0530e-17 
4486.00 7.8925e-17 
4487.50 7.4376e-17 
4489.00 6.9618e-17 
4490.50 7.8184e-17 
4492.00 7.1172e-17 
4493.50 7.2093e-17 
4495.00 7.3335e-17 
4496.50 6.8390e-17 
4498.00 7.7501e-17 
4499.50 8.4754e-17 
4501.00 7.2408e-17 
4502.50 7.5057e-17 
4504.00 6.8578e-17 
4505.50 6.6318e-17 
4507.00 6.7748e-17 
4508.50 7.1206e-17 
4510.00 6.3332e-17 
4511.50 6.9850e-17 
4513.00 5.5501e-17 
4514.50 6.6190e-17 
4516.00 5.7746e-17 
4517.50 6.8035e-17 
4519.00 7.3326e-17 
4520.50 7.6340e-17 
4522.00 7.1727e-17 
4523.50 7.2127e-17 
4525.00 5.9717e-17 
4526.50 6.6678e-17 
4528.00 6.5508e-17 
4529.50 3.6844e-17 
4531.00 5.9206e-17 
4532.50 5.3214e-17 
4534.00 5.8094e-17 
4535.50 7.8914e-17 
4537.00 6.6549e-17 
4538.50 7.5609e-17 
4540.00 6.7291e-17 
4541.50 6.9615e-17 
4543.00 6.2767e-17 
4544.50 6.7443e-17 
4546.00 5.9321e-17 
4547.50 5.9753e-17 
4549.00 6.6194e-17 
4550.50 5.9790e-17 
4552.00 6.7948e-17 
4553.50 5.7774e-17 
4555.00 6.6058e-17 
4556.50 5.2753e-17 
4558.00 6.3518e-17 
4559.50 6.1697e-17 
4561.00 5.5987e-17 
4562.50 5.5652e-17 
4564.00 5.3385e-17 
4565.50 6.1520e-17 
4567.00 5.5776e-17 
4568.50 6.7595e-17 
4570.00 6.2594e-17 
4571.50 5.6956e-17 
4573.00 4.9921e-17 
4574.50 6.1558e-17 
4576.00 6.1052e-17 
4577.50 5.0804e-17 
4579.00 5.6966e-17 
4580.50 6.1119e-17 
4582.00 6.4946e-17 
4583.50 6.6369e-17 
4585.00 5.2932e-17 
4586.50 5.7393e-17 
4588.00 7.4472e-17 
4589.50 6.6287e-17 
4591.00 5.8825e-17 
4592.50 5.6709e-17 
4594.00 6.0698e-17 
4595.50 6.5431e-17 
4597.00 5.6739e-17 
4598.50 6.1608e-17 
4600.00 5.5599e-17 
4601.50 5.4677e-17 
4603.00 6.0295e-17 
4604.50 5.8757e-17 
4606.00 5.4505e-17 
4607.50 6.7687e-17 
4609.00 5.3843e-17 
4610.50 5.1920e-17 
4612.00 6.4705e-17 
4613.50 6.7384e-17 
4615.00 6.3836e-17 
4616.50 6.0501e-17 
4618.00 6.0575e-17 
4619.50 5.4290e-17 
4621.00 6.5191e-17 
4622.50 6.0127e-17 
4624.00 6.2178e-17 
4625.50 5.7312e-17 
4627.00 5.2828e-17 
4628.50 5.4321e-17 
4630.00 5.7960e-17 
4631.50 5.8246e-17 
4633.00 5.6591e-17 
4634.50 5.0138e-17 
4636.00 6.2209e-17 
4637.50 6.6216e-17 
4639.00 6.2420e-17 
4640.50 5.7460e-17 
4642.00 5.7568e-17 
4643.50 5.2835e-17 
4645.00 5.2921e-17 
4646.50 6.8523e-17 
4648.00 5.7626e-17 
4649.50 6.1286e-17 
4651.00 4.8426e-17 
4652.50 5.3340e-17 
4654.00 6.4018e-17 
4655.50 6.0176e-17 
4657.00 5.5871e-17 
4658.50 6.3479e-17 
4660.00 5.3775e-17 
4661.50 5.7470e-17 
4663.00 6.7411e-17 
4664.50 5.8869e-17 
4666.00 5.7470e-17 
4667.50 5.0994e-17 
4669.00 6.1032e-17 
4670.50 6.1795e-17 
4672.00 6.2168e-17 
4673.50 7.5282e-17 
4675.00 7.7465e-17 
4676.50 7.7911e-17 
4678.00 7.8803e-17 
4679.50 6.2645e-17 
4681.00 7.0859e-17 
4682.50 6.9847e-17 
4684.00 6.0240e-17 
4685.50 6.6639e-17 
4687.00 5.8281e-17 
4688.50 4.2740e-17 
4690.00 5.5678e-17 
4691.50 6.6176e-17 
4693.00 5.7450e-17 
4694.50 5.9579e-17 
4696.00 5.0542e-17 
4697.50 4.6886e-17 
4699.00 4.8084e-17 
4700.50 6.1514e-17 
4702.00 7.0750e-17 
4703.50 5.4280e-17 
4705.00 4.9376e-17 
4706.50 5.6263e-17 
4708.00 5.3074e-17 
4709.50 6.0485e-17 
4711.00 6.4979e-17 
4712.50 5.9666e-17 
4714.00 7.1012e-17 
4715.50 6.1201e-17 
4717.00 6.4937e-17 
4718.50 5.9109e-17 
4720.00 6.3920e-17 
4721.50 6.1319e-17 
4723.00 6.2831e-17 
4724.50 5.8601e-17 
4726.00 6.1165e-17 
4727.50 5.8807e-17 
4729.00 5.4345e-17 
4730.50 5.7037e-17 
4732.00 4.9007e-17 
4733.50 6.4678e-17 
4735.00 5.8089e-17 
4736.50 5.6131e-17 
4738.00 5.3585e-17 
4739.50 5.9068e-17 
4741.00 5.9271e-17 
4742.50 5.7906e-17 
4744.00 5.5447e-17 
4745.50 5.8874e-17 
4747.00 5.6413e-17 
4748.50 5.9014e-17 
4750.00 5.9023e-17 
4751.50 5.7769e-17 
4753.00 5.2599e-17 
4754.50 5.5539e-17 
4756.00 5.5942e-17 
4757.50 6.4918e-17 
4759.00 6.0119e-17 
4760.50 6.3344e-17 
4762.00 6.9433e-17 
4763.50 6.4408e-17 
4765.00 5.0621e-17 
4766.50 5.2802e-17 
4768.00 5.3863e-17 
4769.50 5.6667e-17 
4771.00 5.0082e-17 
4772.50 5.4341e-17 
4774.00 5.5355e-17 
4775.50 4.6793e-17 
4777.00 5.5635e-17 
4778.50 5.7557e-17 
4780.00 5.5881e-17 
4781.50 5.1711e-17 
4783.00 6.0659e-17 
4784.50 6.0824e-17 
4786.00 5.7032e-17 
4787.50 5.3467e-17 
4789.00 5.4127e-17 
4790.50 4.7165e-17 
4792.00 5.8506e-17 
4793.50 6.2015e-17 
4795.00 6.1646e-17 
4796.50 5.6471e-17 
4798.00 5.1838e-17 
4799.50 5.6301e-17 
4801.00 5.7786e-17 
4802.50 4.5197e-17 
4804.00 4.8011e-17 
4805.50 4.7195e-17 
4807.00 5.1525e-17 
4808.50 4.5973e-17 
4810.00 5.9492e-17 
4811.50 6.0839e-17 
4813.00 5.4589e-17 
4814.50 4.8333e-17 
4816.00 5.0675e-17 
4817.50 5.0497e-17 
4819.00 4.9426e-17 
4820.50 5.3283e-17 
4822.00 5.1730e-17 
4823.50 4.9644e-17 
4825.00 4.7971e-17 
4826.50 6.7361e-17 
4828.00 5.5614e-17 
4829.50 5.5276e-17 
4831.00 5.5387e-17 
4832.50 5.8921e-17 
4834.00 5.9252e-17 
4835.50 5.0555e-17 
4837.00 4.6680e-17 
4838.50 4.6733e-17 
4840.00 5.4864e-17 
4841.50 4.6491e-17 
4843.00 5.2558e-17 
4844.50 4.1476e-17 
4846.00 4.0511e-17 
4847.50 5.4751e-17 
4849.00 5.4770e-17 
4850.50 5.6881e-17 
4852.00 5.1233e-17 
4853.50 6.2106e-17 
4855.00 6.2979e-17 
4856.50 6.1136e-17 
4858.00 4.9759e-17 
4859.50 5.2979e-17 
4861.00 5.1974e-17 
4862.50 4.6237e-17 
4864.00 5.2019e-17 
4865.50 5.4507e-17 
4867.00 4.9946e-17 
4868.50 4.8634e-17 
4870.00 4.4484e-17 
4871.50 4.6182e-17 
4873.00 5.0218e-17 
4874.50 5.6480e-17 
4876.00 5.6010e-17 
4877.50 5.5301e-17 
4879.00 5.7839e-17 
4880.50 5.5299e-17 
4882.00 5.0265e-17 
4883.50 5.5361e-17 
4885.00 4.8456e-17 
4886.50 4.6042e-17 
4888.00 5.1795e-17 
4889.50 5.2599e-17 
4891.00 4.1009e-17 
4892.50 5.7354e-17 
4894.00 5.0820e-17 
4895.50 4.9312e-17 
4897.00 5.6240e-17 
4898.50 5.0921e-17 
4900.00 5.1539e-17 
4901.50 5.8406e-17 
4903.00 4.4309e-17 
4904.50 4.4403e-17 
4906.00 5.3159e-17 
4907.50 4.5036e-17 
4909.00 5.0008e-17 
4910.50 5.0014e-17 
4912.00 4.8392e-17 
4913.50 4.6135e-17 
4915.00 4.4441e-17 
4916.50 4.8487e-17 
4918.00 4.6581e-17 
4919.50 5.4452e-17 
4921.00 5.8788e-17 
4922.50 5.4064e-17 
4924.00 5.1716e-17 
4925.50 4.4408e-17 
4927.00 5.6068e-17 
4928.50 5.4977e-17 
4930.00 5.2873e-17 
4931.50 5.1517e-17 
4933.00 5.4864e-17 
4934.50 4.8818e-17 
4936.00 4.6460e-17 
4937.50 5.3857e-17 
4939.00 4.6055e-17 
4940.50 4.7098e-17 
4942.00 4.9186e-17 
4943.50 5.5567e-17 
4945.00 5.3968e-17 
4946.50 6.2385e-17 
4948.00 5.0559e-17 
4949.50 5.2287e-17 
4951.00 3.8671e-17 
4952.50 5.8960e-17 
4954.00 5.7963e-17 
4955.50 5.3071e-17 
4957.00 4.9691e-17 
4958.50 4.9623e-17 
4960.00 5.1722e-17 
4961.50 4.0631e-17 
4963.00 4.5896e-17 
4964.50 4.2466e-17 
4966.00 5.2042e-17 
4967.50 5.0871e-17 
4969.00 5.0039e-17 
4970.50 5.4959e-17 
4972.00 5.1798e-17 
4973.50 5.2767e-17 
4975.00 4.6972e-17 
4976.50 5.3012e-17 
4978.00 5.5860e-17 
4979.50 5.5517e-17 
4981.00 4.5392e-17 
4982.50 4.1198e-17 
4984.00 4.8925e-17 
4985.50 5.8851e-17 
4987.00 4.8652e-17 
4988.50 4.8678e-17 
4990.00 5.0812e-17 
4991.50 4.5039e-17 
4993.00 4.8081e-17 
4994.50 5.1918e-17 
4996.00 4.9520e-17 
4997.50 4.8643e-17 
4999.00 3.4869e-17 
5000.50 5.7198e-17 
5002.00 5.3129e-17 
5003.50 4.6986e-17 
5005.00 3.9647e-17 
5006.50 5.0575e-17 
5008.00 5.0198e-17 
5009.50 5.4117e-17 
5011.00 4.7487e-17 
5012.50 4.9935e-17 
5014.00 4.3733e-17 
5015.50 5.0293e-17 
5017.00 4.8949e-17 
5018.50 5.0260e-17 
5020.00 5.1873e-17 
5021.50 5.1768e-17 
5023.00 5.3130e-17 
5024.50 5.6832e-17 
5026.00 4.4518e-17 
5027.50 5.0017e-17 
5029.00 5.4259e-17 
5030.50 4.4793e-17 
5032.00 3.9278e-17 
5033.50 4.8605e-17 
5035.00 4.0307e-17 
5036.50 4.7276e-17 
5038.00 4.2318e-17 
5039.50 3.7412e-17 
5041.00 4.5412e-17 
5042.50 4.5698e-17 
5044.00 5.0366e-17 
5045.50 5.0017e-17 
5047.00 5.0672e-17 
5048.50 5.3840e-17 
5050.00 6.0761e-17 
5051.50 4.8164e-17 
5053.00 4.6583e-17 
5054.50 5.3141e-17 
5056.00 4.8529e-17 
5057.50 5.1431e-17 
5059.00 4.2311e-17 
5060.50 5.5897e-17 
5062.00 5.0462e-17 
5063.50 4.5432e-17 
5065.00 4.2973e-17 
5066.50 5.1735e-17 
5068.00 4.4227e-17 
5069.50 4.8871e-17 
5071.00 5.7176e-17 
5072.50 4.5053e-17 
5074.00 4.7029e-17 
5075.50 5.2859e-17 
5077.00 4.6129e-17 
5078.50 4.9137e-17 
5080.00 4.7313e-17 
5081.50 5.0999e-17 
5083.00 5.2701e-17 
5084.50 4.7602e-17 
5086.00 4.2425e-17 
5087.50 5.6870e-17 
5089.00 6.2401e-17 
5090.50 5.4681e-17 
5092.00 5.2407e-17 
5093.50 5.2404e-17 
5095.00 5.3847e-17 
5096.50 5.1819e-17 
5098.00 4.3742e-17 
5099.50 4.9265e-17 
5101.00 5.7631e-17 
5102.50 5.4854e-17 
5104.00 5.5948e-17 
5105.50 5.8381e-17 
5107.00 5.2536e-17 
5108.50 5.4004e-17 
5110.00 5.0508e-17 
5111.50 4.2531e-17 
5113.00 4.2660e-17 
5114.50 5.3357e-17 
5116.00 5.4570e-17 
5117.50 5.1418e-17 
5119.00 4.9525e-17 
5120.50 4.9460e-17 
5122.00 4.4266e-17 
5123.50 5.1732e-17 
5125.00 4.5307e-17 
5126.50 4.3358e-17 
5128.00 4.7380e-17 
5129.50 4.8061e-17 
5131.00 4.7610e-17 
5132.50 5.1256e-17 
5134.00 5.7256e-17 
5135.50 5.7459e-17 
5137.00 4.6313e-17 
5138.50 5.9698e-17 
5140.00 5.3298e-17 
5141.50 5.4996e-17 
5143.00 5.3387e-17 
5144.50 4.5590e-17 
5146.00 4.9265e-17 
5147.50 5.0881e-17 
5149.00 6.1064e-17 
5150.50 5.1329e-17 
5152.00 4.8614e-17 
5153.50 5.1164e-17 
5155.00 5.7104e-17 
5156.50 5.6423e-17 
5158.00 5.5682e-17 
5159.50 4.8275e-17 
5161.00 4.7632e-17 
5162.50 4.4603e-17 
5164.00 3.8535e-17 
5165.50 5.1275e-17 
5167.00 4.9915e-17 
5168.50 4.9092e-17 
5170.00 5.9018e-17 
5171.50 5.5224e-17 
5173.00 4.8584e-17 
5174.50 4.7889e-17 
5176.00 4.1258e-17 
5177.50 5.0829e-17 
5179.00 5.2976e-17 
5180.50 4.9565e-17 
5182.00 4.5179e-17 
5183.50 4.5847e-17 
5185.00 4.8129e-17 
5186.50 4.2849e-17 
5188.00 3.9695e-17 
5189.50 4.5911e-17 
5191.00 4.6264e-17 
5192.50 4.7887e-17 
5194.00 5.3623e-17 
5195.50 3.8638e-17 
5197.00 4.0335e-17 
5198.50 4.9545e-17 
5200.00 5.5057e-17 
5201.50 4.7060e-17 
5203.00 4.3761e-17 
5204.50 4.9542e-17 
5206.00 4.7995e-17 
5207.50 5.0628e-17 
5209.00 4.3951e-17 
5210.50 4.2289e-17 
5212.00 5.3631e-17 
5213.50 4.8668e-17 
5215.00 4.0575e-17 
5216.50 3.6104e-17 
5218.00 4.1863e-17 
5219.50 4.9871e-17 
5221.00 3.9398e-17 
5222.50 4.1403e-17 
5224.00 4.5729e-17 
5225.50 4.5899e-17 
5227.00 4.9211e-17 
5228.50 4.6879e-17 
5230.00 5.1027e-17 
5231.50 4.5917e-17 
5233.00 4.3436e-17 
5234.50 4.4820e-17 
5236.00 5.1034e-17 
5237.50 4.5836e-17 
5239.00 4.7219e-17 
5240.50 5.7422e-17 
5242.00 5.1920e-17 
5243.50 4.5476e-17 
5245.00 4.5410e-17 
5246.50 4.6105e-17 
5248.00 5.2741e-17 
5249.50 4.2115e-17 
5251.00 4.6831e-17 
5252.50 5.4644e-17 
5254.00 4.7091e-17 
5255.50 4.7808e-17 
5257.00 5.2317e-17 
5258.50 4.8558e-17 
5260.00 3.9269e-17 
5261.50 7.0730e-17 
5263.00 5.1352e-17 
5264.50 5.2461e-17 
5266.00 4.9512e-17 
5267.50 4.7655e-17 
5269.00 4.6712e-17 
5270.50 5.1113e-17 
5272.00 5.0554e-17 
5273.50 4.2720e-17 
5275.00 4.9658e-17 
5276.50 4.6312e-17 
5278.00 4.2906e-17 
5279.50 5.6337e-17 
5281.00 5.5006e-17 
5282.50 4.3169e-17 
5284.00 4.8186e-17 
5285.50 4.9751e-17 
5287.00 5.0264e-17 
5288.50 4.5542e-17 
5290.00 5.4901e-17 
5291.50 5.0174e-17 
5293.00 4.4744e-17 
5294.50 4.8321e-17 
5296.00 4.8199e-17 
5297.50 4.0986e-17 
5299.00 5.2234e-17 
5300.50 5.8147e-17 
5302.00 4.7060e-17 
5303.50 4.3135e-17 
5305.00 5.2314e-17 
5306.50 5.1620e-17 
5308.00 4.5014e-17 
5309.50 4.9355e-17 
5311.00 5.1633e-17 
5312.50 5.1114e-17 
5314.00 4.5229e-17 
5315.50 4.7911e-17 
5317.00 4.6540e-17 
5318.50 5.0541e-17 
5320.00 4.8284e-17 
5321.50 4.7531e-17 
5323.00 4.7578e-17 
5324.50 4.8148e-17 
5326.00 4.8793e-17 
5327.50 4.5388e-17 
5329.00 4.7168e-17 
5330.50 4.0361e-17 
5332.00 5.7075e-17 
5333.50 6.3033e-17 
5335.00 5.6912e-17 
5336.50 5.0191e-17 
5338.00 4.8119e-17 
5339.50 5.2684e-17 
5341.00 5.1085e-17 
5342.50 4.6160e-17 
5344.00 4.6002e-17 
5345.50 5.5012e-17 
5347.00 5.5019e-17 
5348.50 4.8220e-17 
5350.00 5.3105e-17 
5351.50 4.7551e-17 
5353.00 4.7941e-17 
5354.50 5.1732e-17 
5356.00 5.8807e-17 
5357.50 5.0751e-17 
5359.00 5.0368e-17 
5360.50 5.2722e-17 
5362.00 4.7294e-17 
5363.50 5.7662e-17 
5365.00 6.3729e-17 
5366.50 5.9838e-17 
5368.00 6.5847e-17 
5369.50 5.6943e-17 
5371.00 5.2349e-17 
5372.50 5.5176e-17 
5374.00 5.0866e-17 
5375.50 5.8520e-17 
5377.00 5.4237e-17 
5378.50 5.1239e-17 
5380.00 4.7042e-17 
5381.50 6.1078e-17 
5383.00 5.2507e-17 
5384.50 4.8953e-17 
5386.00 5.4017e-17 
5387.50 5.4995e-17 
5389.00 5.5503e-17 
5390.50 5.2736e-17 
5392.00 5.8449e-17 
5393.50 5.8440e-17 
5395.00 6.0684e-17 
5396.50 5.8617e-17 
5398.00 6.1200e-17 
5399.50 5.5349e-17 
5401.00 6.3716e-17 
5402.50 5.8326e-17 
5404.00 5.8569e-17 
5405.50 6.1794e-17 
5407.00 6.8014e-17 
5408.50 6.5595e-17 
5410.00 5.0642e-17 
5411.50 6.3625e-17 
5413.00 5.7311e-17 
5414.50 5.7859e-17 
5416.00 6.8634e-17 
5417.50 5.9977e-17 
5419.00 5.9767e-17 
5420.50 5.9038e-17 
5422.00 5.6252e-17 
5423.50 5.4149e-17 
5425.00 5.8691e-17 
5426.50 6.5795e-17 
5428.00 6.3653e-17 
5429.50 6.8181e-17 
5431.00 6.7903e-17 
5432.50 5.8081e-17 
5434.00 6.0580e-17 
5435.50 6.9543e-17 
5437.00 6.6700e-17 
5438.50 6.1398e-17 
5440.00 6.6696e-17 
5441.50 5.9561e-17 
5443.00 5.4899e-17 
5444.50 6.1887e-17 
5446.00 5.5111e-17 
5447.50 6.6092e-17 
5449.00 6.7409e-17 
5450.50 5.8185e-17 
5452.00 5.8977e-17 
5453.50 6.0022e-17 
5455.00 5.8747e-17 
5456.50 5.1879e-17 
5458.00 5.8692e-17 
5459.50 5.3048e-17 
5461.00 5.4748e-17 
5462.50 5.7782e-17 
5464.00 4.6162e-17 
5465.50 4.9239e-17 
5467.00 5.7391e-17 
5468.50 4.7193e-17 
5470.00 5.1625e-17 
5471.50 5.3037e-17 
5473.00 5.8488e-17 
5474.50 5.6473e-17 
5476.00 5.2298e-17 
5477.50 5.2443e-17 
5479.00 6.2556e-17 
5480.50 5.1762e-17 
5482.00 4.9962e-17 
5483.50 5.2337e-17 
5485.00 5.9733e-17 
5486.50 5.4939e-17 
5488.00 4.7109e-17 
5489.50 4.5684e-17 
5491.00 4.7988e-17 
5492.50 4.7268e-17 
5494.00 5.1577e-17 
5495.50 5.6412e-17 
5497.00 5.0143e-17 
5498.50 4.9779e-17 
5500.00 5.5001e-17 
5501.50 5.4808e-17 
5503.00 5.9363e-17 
5504.50 4.6806e-17 
5506.00 4.8189e-17 
5507.50 4.5225e-17 
5509.00 5.1727e-17 
5510.50 5.3044e-17 
5512.00 4.2346e-17 
5513.50 6.1405e-17 
5515.00 4.6674e-17 
5516.50 4.5535e-17 
5518.00 4.7503e-17 
5519.50 5.1204e-17 
5521.00 5.0231e-17 
5522.50 4.8924e-17 
5524.00 4.6908e-17 
5525.50 5.2859e-17 
5527.00 4.9567e-17 
5528.50 4.7033e-17 
5530.00 5.0122e-17 
5531.50 4.8617e-17 
5533.00 4.4698e-17 
5534.50 4.8454e-17 
5536.00 5.6247e-17 
5537.50 4.6528e-17 
5539.00 5.0165e-17 
5540.50 4.1907e-17 
5542.00 4.3421e-17 
5543.50 4.6596e-17 
5545.00 4.7526e-17 
5546.50 4.1401e-17 
5548.00 4.2159e-17 
5549.50 4.4398e-17 
5551.00 4.4155e-17 
5552.50 5.0738e-17 
5554.00 4.7010e-17 
5555.50 5.4200e-17 
5557.00 4.8740e-17 
5558.50 4.1657e-17 
5560.00 4.3085e-17 
5561.50 4.1809e-17 
5563.00 4.6402e-17 
5564.50 4.6680e-17 
5566.00 4.3017e-17 
5567.50 5.0321e-17 
5569.00 5.0329e-17 
5570.50 5.2898e-17 
5572.00 3.7747e-17 
5573.50 5.4679e-17 
5575.00 4.8255e-17 
5576.50 4.5770e-17 
5578.00 6.5538e-19 
5579.50 1.0537e-16 
5581.00 1.4473e-16 
5582.50 5.0054e-17 
5584.00 5.0945e-17 
5585.50 5.2125e-17 
5587.00 3.9315e-17 
5588.50 4.0230e-17 
5590.00 4.5146e-17 
5591.50 5.0023e-17 
5593.00 4.9040e-17 
5594.50 4.2726e-17 
5596.00 3.8201e-17 
5597.50 4.5999e-17 
5599.00 3.8629e-17 
5600.50 3.9074e-17 
5602.00 4.0038e-17 
5603.50 4.3068e-17 
5605.00 4.2388e-17 
5606.50 3.8936e-17 
5608.00 5.1093e-17 
5609.50 4.9659e-17 
5611.00 4.6369e-17 
5612.50 4.7219e-17 
5614.00 4.3582e-17 
5615.50 4.7923e-17 
5617.00 3.3204e-17 
5618.50 5.0793e-17 
5620.00 5.6202e-17 
5621.50 5.1350e-17 
5623.00 6.4991e-17 
5624.50 5.8123e-17 
5626.00 5.2841e-17 
5627.50 3.9252e-17 
5629.00 4.6768e-17 
5630.50 3.9250e-17 
5632.00 3.9150e-17 
5633.50 4.9909e-17 
5635.00 4.5849e-17 
5636.50 3.8602e-17 
5638.00 4.3566e-17 
5639.50 4.0614e-17 
5641.00 3.6966e-17 
5642.50 3.6464e-17 
5644.00 3.4279e-17 
5645.50 4.4865e-17 
5647.00 4.1827e-17 
5648.50 3.8972e-17 
5650.00 4.2376e-17 
5651.50 4.6862e-17 
5653.00 4.5728e-17 
5654.50 3.7267e-17 
5656.00 3.1655e-17 
5657.50 3.0254e-17 
5659.00 4.4295e-17 
5660.50 4.2621e-17 
5662.00 4.8962e-17 
5663.50 5.4411e-17 
5665.00 5.5204e-17 
5666.50 4.7878e-17 
5668.00 3.4608e-17 
5669.50 4.5115e-17 
5671.00 5.2044e-17 
5672.50 4.9152e-17 
5674.00 3.7514e-17 
5675.50 4.3350e-17 
5677.00 4.8985e-17 
5678.50 5.1863e-17 
5680.00 4.7901e-17 
5681.50 4.7482e-17 
5683.00 4.3030e-17 
5684.50 3.9374e-17 
5686.00 4.3343e-17 
5687.50 4.3157e-17 
5689.00 4.6509e-17 
5690.50 4.7219e-17 
5692.00 4.2986e-17 
5693.50 5.2247e-17 
5695.00 4.7374e-17 
5696.50 3.9206e-17 
5698.00 3.8732e-17 
5699.50 4.2880e-17 
5701.00 4.4320e-17 
5702.50 5.0832e-17 
5704.00 4.7349e-17 
5705.50 4.3481e-17 
5707.00 5.1208e-17 
5708.50 4.0319e-17 
5710.00 4.4139e-17 
5711.50 4.5766e-17 
5713.00 4.5207e-17 
5714.50 4.4204e-17 
5716.00 2.8246e-17 
5717.50 3.5391e-17 
5719.00 4.0474e-17 
5720.50 4.6334e-17 
5722.00 4.9264e-17 
5723.50 4.3789e-17 
5725.00 4.1280e-17 
5726.50 4.7107e-17 
5728.00 4.1027e-17 
5729.50 4.7309e-17 
5731.00 5.0826e-17 
5732.50 4.4124e-17 
5734.00 3.9236e-17 
5735.50 4.9058e-17 
5737.00 4.2730e-17 
5738.50 5.0797e-17 
5740.00 4.3929e-17 
5741.50 4.2108e-17 
5743.00 4.5921e-17 
5744.50 4.5327e-17 
5746.00 3.6661e-17 
5747.50 3.1720e-17 
5749.00 3.6432e-17 
5750.50 3.4692e-17 
5752.00 3.8698e-17 
5753.50 4.0385e-17 
5755.00 3.9401e-17 
5756.50 4.3377e-17 
5758.00 4.6189e-17 
5759.50 3.5477e-17 
5761.00 3.9985e-17 
5762.50 4.4387e-17 
5764.00 3.0275e-17 
5765.50 3.8042e-17 
5767.00 4.2351e-17 
5768.50 4.1464e-17 
5770.00 4.4168e-17 
5771.50 4.6863e-17 
5773.00 3.9795e-17 
5774.50 4.8537e-17 
5776.00 5.1875e-17 
5777.50 5.0567e-17 
5779.00 4.4597e-17 
5780.50 3.8919e-17 
5782.00 5.0239e-17 
5783.50 4.4464e-17 
5785.00 4.4444e-17 
5786.50 4.4343e-17 
5788.00 4.7655e-17 
5789.50 5.3562e-17 
5791.00 5.0419e-17 
5792.50 5.3809e-17 
5794.00 4.4785e-17 
5795.50 4.2861e-17 
5797.00 3.7675e-17 
5798.50 3.3400e-17 
5800.00 4.2993e-17 
5801.50 4.2702e-17 
5803.00 3.8937e-17 
5804.50 3.9646e-17 
5806.00 5.2083e-17 
5807.50 4.9814e-17 
5809.00 4.1942e-17 
5810.50 4.6271e-17 
5812.00 4.2342e-17 
5813.50 4.0788e-17 
5815.00 3.1519e-17 
5816.50 4.2939e-17 
5818.00 4.8889e-17 
5819.50 3.9885e-17 
5821.00 3.6134e-17 
5822.50 4.6167e-17 
5824.00 5.3847e-17 
5825.50 4.7285e-17 
5827.00 4.7674e-17 
5828.50 4.0691e-17 
5830.00 3.6091e-17 
5831.50 4.5814e-17 
5833.00 3.6545e-17 
5834.50 4.1555e-17 
5836.00 3.8734e-17 
5837.50 3.6993e-17 
5839.00 4.2681e-17 
5840.50 4.3794e-17 
5842.00 4.4120e-17 
5843.50 3.9803e-17 
5845.00 4.1170e-17 
5846.50 4.6557e-17 
5848.00 4.8181e-17 
5849.50 4.6384e-17 
5851.00 4.1800e-17 
5852.50 3.6578e-17 
5854.00 4.0689e-17 
5855.50 4.1150e-17 
5857.00 4.1979e-17 
5858.50 4.6157e-17 
5860.00 3.9455e-17 
5861.50 5.1336e-17 
5863.00 4.2144e-17 
5864.50 3.4475e-17 
5866.00 3.7490e-17 
5867.50 4.6542e-17 
5869.00 5.1750e-17 
5870.50 4.9386e-17 
5872.00 4.3450e-17 
5873.50 3.1610e-17 
5875.00 4.8618e-17 
5876.50 4.3790e-17 
5878.00 3.3395e-17 
5879.50 4.5954e-17 
5881.00 4.4529e-17 
5882.50 4.4389e-17 
5884.00 5.1214e-17 
5885.50 4.2723e-17 
5887.00 2.6875e-17 
5888.50 3.9109e-17 
5890.00 6.1871e-17 
5891.50 2.0940e-17 
5893.00 4.4691e-18 
5894.50 6.6290e-17 
5896.00 5.4424e-17 
5897.50 2.8202e-17 
5899.00 4.4949e-17 
5900.50 7.1463e-17 
5902.00 5.3323e-17 
5903.50 4.1810e-17 
5905.00 4.5700e-17 
5906.50 5.5664e-17 
5908.00 5.0075e-17 
5909.50 4.5501e-17 
5911.00 4.6225e-17 
5912.50 4.9689e-17 
5914.00 4.5178e-17 
5915.50 4.1515e-17 
5917.00 4.4540e-17 
5918.50 5.1275e-17 
5920.00 4.3959e-17 
5921.50 4.6377e-17 
5923.00 4.4589e-17 
5924.50 4.1746e-17 
5926.00 4.3312e-17 
5927.50 4.4545e-17 
5929.00 5.0364e-17 
5930.50 4.4445e-17 
5932.00 3.7392e-17 
5933.50 4.6675e-17 
5935.00 4.7703e-17 
5936.50 4.4773e-17 
5938.00 4.3767e-17 
5939.50 5.5061e-17 
5941.00 4.7621e-17 
5942.50 3.2788e-17 
5944.00 3.9374e-17 
5945.50 3.6908e-17 
5947.00 3.7707e-17 
5948.50 4.9386e-17 
5950.00 4.1552e-17 
5951.50 4.2855e-17 
5953.00 4.7573e-17 
5954.50 4.0128e-17 
5956.00 4.0500e-17 
5957.50 4.6940e-17 
5959.00 4.1759e-17 
5960.50 4.4139e-17 
5962.00 4.6843e-17 
5963.50 4.1215e-17 
5965.00 4.5904e-17 
5966.50 4.4778e-17 
5968.00 4.7164e-17 
5969.50 4.6647e-17 
5971.00 4.1161e-17 
5972.50 4.3114e-17 
5974.00 4.2831e-17 
5975.50 3.6863e-17 
5977.00 3.3637e-17 
5978.50 3.8357e-17 
5980.00 3.2985e-17 
5981.50 2.8624e-17 
5983.00 4.8379e-17 
5984.50 4.5883e-17 
5986.00 3.6342e-17 
5987.50 4.0209e-17 
5989.00 4.1991e-17 
5990.50 5.0496e-17 
5992.00 4.0729e-17 
5993.50 3.9052e-17 
5995.00 4.2509e-17 
5996.50 3.4441e-17 
5998.00 3.9647e-17 
5999.50 3.9030e-17 
6001.00 3.3738e-17 
6002.50 4.7510e-17 
6004.00 4.9509e-17 
6005.50 5.2366e-17 
6007.00 5.1872e-17 
6008.50 4.8642e-17 
6010.00 4.7813e-17 
6011.50 4.3945e-17 
6013.00 3.9436e-17 
6014.50 4.1251e-17 
6016.00 4.5135e-17 
6017.50 4.3624e-17 
6019.00 4.2857e-17 
6020.50 4.4815e-17 
6022.00 4.2883e-17 
6023.50 4.5713e-17 
6025.00 4.7822e-17 
6026.50 4.5896e-17 
6028.00 4.8985e-17 
6029.50 4.3163e-17 
6031.00 4.0139e-17 
6032.50 4.1478e-17 
6034.00 4.3518e-17 
6035.50 5.0047e-17 
6037.00 4.3654e-17 
6038.50 4.2704e-17 
6040.00 3.8960e-17 
6041.50 4.1860e-17 
6043.00 4.7459e-17 
6044.50 4.5376e-17 
6046.00 3.7366e-17 
6047.50 3.8636e-17 
6049.00 3.6284e-17 
6050.50 4.0276e-17 
6052.00 4.0609e-17 
6053.50 4.8219e-17 
6055.00 4.1142e-17 
6056.50 4.2911e-17 
6058.00 4.4447e-17 
6059.50 3.5970e-17 
6061.00 3.9113e-17 
6062.50 4.1581e-17 
6064.00 4.1118e-17 
6065.50 3.9176e-17 
6067.00 4.7385e-17 
6068.50 3.5609e-17 
6070.00 3.6120e-17 
6071.50 3.9267e-17 
6073.00 3.8399e-17 
6074.50 3.5822e-17 
6076.00 4.3302e-17 
6077.50 4.4217e-17 
6079.00 3.7784e-17 
6080.50 3.8170e-17 
6082.00 4.3710e-17 
6083.50 3.7005e-17 
6085.00 3.8687e-17 
6086.50 4.6207e-17 
6088.00 3.9638e-17 
6089.50 3.7618e-17 
6091.00 4.0230e-17 
6092.50 3.5779e-17 
6094.00 4.7768e-17 
6095.50 4.0948e-17 
6097.00 3.2325e-17 
6098.50 3.2582e-17 
6100.00 4.0529e-17 
6101.50 4.0338e-17 
6103.00 3.7677e-17 
6104.50 3.9796e-17 
6106.00 3.8290e-17 
6107.50 3.0600e-17 
6109.00 3.9438e-17 
6110.50 4.6562e-17 
6112.00 4.0216e-17 
6113.50 4.0748e-17 
6115.00 3.9743e-17 
6116.50 3.9919e-17 
6118.00 3.7334e-17 
6119.50 3.1398e-17 
6121.00 3.8185e-17 
6122.50 3.8896e-17 
6124.00 3.4629e-17 
6125.50 3.8162e-17 
6127.00 4.0627e-17 
6128.50 4.0021e-17 
6130.00 3.6332e-17 
6131.50 4.0985e-17 
6133.00 4.0943e-17 
6134.50 3.9803e-17 
6136.00 4.5293e-17 
6137.50 4.1829e-17 
6139.00 3.8892e-17 
6140.50 3.8169e-17 
6142.00 3.2866e-17 
6143.50 7.4585e-18 
6145.00 7.5413e-18 
6146.50 7.6241e-18 
6148.00 7.7069e-18 
6149.50 7.7898e-18 
6151.00 7.8725e-18 
6152.50 7.9553e-18 
6154.00 8.0380e-18 
6155.50 8.1208e-18 
6157.00 8.2035e-18 
6158.50 8.2862e-18 
6160.00 8.3691e-18 
6161.50 8.4517e-18 
6163.00 8.5344e-18 
6164.50 8.6176e-18 
6166.00 8.7040e-18 
6167.50 8.7866e-18 
6169.00 8.8693e-18 
6170.50 8.9519e-18 
6172.00 9.0346e-18 
6173.50 9.1172e-18 
6175.00 9.1997e-18 
6176.50 9.2823e-18 
6178.00 9.3649e-18 
6179.50 9.4476e-18 
6181.00 9.5301e-18 
6182.50 9.6126e-18 
6184.00 9.6952e-18 
6185.50 9.7777e-18 
6187.00 9.8602e-18 
6188.50 9.9427e-18 
6190.00 1.0025e-17 
6191.50 1.0108e-17 
6193.00 1.0193e-17 
6194.50 1.0277e-17 
6196.00 1.0359e-17 
6197.50 1.0441e-17 
6199.00 1.0524e-17 
6200.50 1.0606e-17 
6202.00 1.0689e-17 
6203.50 1.0771e-17 
6205.00 1.0853e-17 
6206.50 1.0936e-17 
6208.00 1.1018e-17 
6209.50 1.1100e-17 
6211.00 1.1183e-17 
6212.50 1.1265e-17 
6214.00 1.1347e-17 
6215.50 1.1430e-17 
6217.00 1.1512e-17 
6218.50 1.1594e-17 
6220.00 1.1677e-17 
6221.50 1.1759e-17 
6223.00 1.1843e-17 
6224.50 1.1927e-17 
6226.00 1.2009e-17 
6227.50 1.2091e-17 
6229.00 1.2173e-17 
6230.50 1.2256e-17 
6232.00 1.2338e-17 
6233.50 1.2420e-17 
6235.00 1.2502e-17 
6236.50 1.2584e-17 
6238.00 1.2666e-17 
6239.50 1.2748e-17 
6241.00 1.2831e-17 
6242.50 1.2913e-17 
6244.00 1.2995e-17 
6245.50 1.3077e-17 
6247.00 1.3159e-17 
6248.50 1.3241e-17 
6250.00 1.3323e-17 
6251.50 1.3405e-17 
6253.00 1.3487e-17 
6254.50 1.3569e-17 
6256.00 1.3651e-17 
6257.50 1.3735e-17 
6259.00 1.3818e-17 
6260.50 1.3900e-17 
6262.00 1.3982e-17 
6263.50 1.4064e-17 
6265.00 1.4146e-17 
6266.50 1.4228e-17 
6268.00 1.4310e-17 
6269.50 1.4392e-17 
6271.00 1.4473e-17 
6272.50 1.4555e-17 
6274.00 1.4637e-17 
6275.50 1.4719e-17 
6277.00 1.4801e-17 
6278.50 1.4883e-17 
6280.00 1.4965e-17 
6281.50 1.5046e-17 
6283.00 1.5128e-17 
6284.50 1.5210e-17 
6286.00 1.5292e-17 
6287.50 1.5373e-17 
6289.00 1.5455e-17 
6290.50 1.5537e-17 
6292.00 1.5619e-17 
6293.50 1.5700e-17 
6295.00 1.5782e-17 
6296.50 1.5865e-17 
6298.00 1.5948e-17 
6299.50 1.6030e-17 
6301.00 1.6111e-17 
6302.50 1.6193e-17 
6304.00 1.6275e-17 
6305.50 1.6356e-17 
6307.00 1.6438e-17 
6308.50 1.6519e-17 
6310.00 1.6601e-17 
6311.50 1.6683e-17 
6313.00 1.6764e-17 
6314.50 1.6846e-17 
6316.00 1.6927e-17 
6317.50 1.7009e-17 
6319.00 1.7090e-17 
6320.50 1.7172e-17 
6322.00 1.7253e-17 
6323.50 1.7335e-17 
6325.00 1.7416e-17 
6326.50 1.7498e-17 
6328.00 1.7579e-17 
6329.50 1.7661e-17 
6331.00 1.7742e-17 
6332.50 1.7823e-17 
6334.00 1.7905e-17 
6335.50 1.7986e-17 
6337.00 1.8068e-17 
6338.50 1.8149e-17 
6340.00 1.8230e-17 
6341.50 1.8312e-17 
6343.00 1.8393e-17 
6344.50 1.8474e-17 
6346.00 1.8557e-17 
6347.50 1.8639e-17 
6349.00 1.8720e-17 
6350.50 1.8801e-17 
6352.00 1.8883e-17 
6353.50 1.8964e-17 
6355.00 1.9045e-17 
6356.50 1.9126e-17 
6358.00 1.9208e-17 
6359.50 1.9289e-17 
6361.00 1.9370e-17 
6362.50 1.9451e-17 
6364.00 1.9532e-17 
6365.50 1.9613e-17 
6367.00 1.9695e-17 
6368.50 1.9776e-17 
6370.00 1.9857e-17 
6371.50 1.9938e-17 
6373.00 2.0019e-17 
6374.50 2.0100e-17 
6376.00 2.0181e-17 
6377.50 2.0262e-17 
6379.00 2.0343e-17 
6380.50 2.0424e-17 
6382.00 2.0505e-17 
6383.50 2.0586e-17 
6385.00 2.0667e-17 
6386.50 2.0748e-17 
6388.00 2.0830e-17 
6389.50 2.0910e-17 
6391.00 2.0991e-17 
6392.50 2.1072e-17 
6394.00 2.1153e-17 
6395.50 2.1234e-17 
6397.00 2.1315e-17 
6398.50 2.1396e-17 
6400.00 2.1477e-17 
6401.50 2.1558e-17 
6403.00 2.1639e-17 
6404.50 2.1720e-17 
6406.00 2.1800e-17 
6407.50 2.1881e-17 
6409.00 2.1962e-17 
6410.50 2.2043e-17 
6412.00 2.2124e-17 
6413.50 2.2204e-17 
6415.00 2.2285e-17 
6416.50 2.2366e-17 
6418.00 2.2447e-17 
6419.50 2.2529e-17 
6421.00 2.2609e-17 
6422.50 2.2690e-17 
6424.00 2.2771e-17 
6425.50 2.2851e-17 
6427.00 2.2932e-17 
6428.50 2.3013e-17 
6430.00 2.3094e-17 
6431.50 2.3174e-17 
6433.00 2.3255e-17 
6434.50 2.3335e-17 
6436.00 2.3416e-17 
6437.50 2.3497e-17 
6439.00 2.3577e-17 
6440.50 2.3658e-17 
6442.00 2.3738e-17 
6443.50 2.3819e-17 
6445.00 2.3899e-17 
6446.50 2.3980e-17 
6448.00 2.4060e-17 
6449.50 2.4141e-17 
6451.00 2.4221e-17 
6452.50 2.4302e-17 
6454.00 2.4382e-17 
6455.50 2.4463e-17 
6457.00 2.4543e-17 
6458.50 2.4624e-17 
6460.00 2.4704e-17 
6461.50 2.4784e-17 
6463.00 2.4865e-17 
6464.50 2.4945e-17 
6466.00 2.5026e-17 
6467.50 2.5106e-17 
6469.00 2.5186e-17 
6470.50 2.5267e-17 
6472.00 2.5347e-17 
6473.50 2.5427e-17 
6475.00 2.5508e-17 
6476.50 2.5588e-17 
6478.00 2.5668e-17 
6479.50 2.5748e-17 
6481.00 2.5829e-17 
6482.50 2.5909e-17 
6484.00 2.5989e-17 
6485.50 2.6069e-17 
6487.00 2.6150e-17 
6488.50 2.6230e-17 
6490.00 2.6310e-17 
6491.50 2.6390e-17 
6493.00 2.6470e-17 
6494.50 2.6551e-17 
6496.00 2.6631e-17 
6497.50 2.6711e-17 
6499.00 2.6791e-17 
6500.50 2.6871e-17 
6502.00 2.6951e-17 
6503.50 2.7031e-17 
6505.00 2.7111e-17 
6506.50 2.7191e-17 
6508.00 2.7271e-17 
6509.50 2.7351e-17 
6511.00 2.7431e-17 
6512.50 2.7511e-17 
6514.00 2.7591e-17 
6515.50 2.7671e-17 
6517.00 2.7751e-17 
6518.50 2.7831e-17 
6520.00 2.7911e-17 
6521.50 2.7991e-17 
6523.00 2.8071e-17 
6524.50 2.8151e-17 
6526.00 2.8231e-17 
6527.50 2.8311e-17 
6529.00 2.8391e-17 
6530.50 2.8470e-17 
6532.00 2.8550e-17 
6533.50 2.8630e-17 
6535.00 2.8710e-17 
6536.50 2.8790e-17 
6538.00 2.8870e-17 
6539.50 2.8949e-17 
6541.00 2.9029e-17 
6542.50 2.9109e-17 
6544.00 2.9189e-17 
6545.50 2.9268e-17 
6547.00 2.9348e-17 
6548.50 2.9428e-17 
6550.00 2.9508e-17 
6551.50 2.9587e-17 
6553.00 2.9667e-17 
6554.50 2.9747e-17 
6556.00 2.9826e-17 
6557.50 2.9906e-17 
6559.00 2.9986e-17 
6560.50 3.0065e-17 
6562.00 3.0145e-17 
6563.50 3.0224e-17 
6565.00 3.0304e-17 
6566.50 3.0384e-17 
6568.00 3.0463e-17 
6569.50 3.0543e-17 
6571.00 3.0622e-17 
6572.50 3.0702e-17 
6574.00 3.0781e-17 
6575.50 3.0861e-17 
6577.00 3.0940e-17 
6578.50 3.1020e-17 
6580.00 3.1099e-17 
6581.50 3.1179e-17 
6583.00 3.1258e-17 
6584.50 3.1338e-17 
6586.00 3.1417e-17 
6587.50 3.1496e-17 
6589.00 3.1576e-17 
6590.50 3.1655e-17 
6592.00 3.1735e-17 
6593.50 3.1814e-17 
6595.00 3.1893e-17 
6596.50 3.1973e-17 
6598.00 3.2052e-17 
6599.50 3.2131e-17 
6601.00 3.2210e-17 
6602.50 3.2290e-17 
6604.00 3.2369e-17 
6605.50 3.2448e-17 
6607.00 3.2527e-17 
6608.50 3.2607e-17 
6610.00 3.2686e-17 
6611.50 3.2766e-17 
6613.00 3.2845e-17 
6614.50 3.2925e-17 
6616.00 3.3004e-17 
6617.50 3.3083e-17 
6619.00 3.3162e-17 
6620.50 3.3241e-17 
6622.00 3.3321e-17 
6623.50 3.3400e-17 
6625.00 3.3479e-17 
6626.50 3.3558e-17 
6628.00 3.3637e-17 
6629.50 3.3716e-17 
6631.00 3.3795e-17 
6632.50 3.3874e-17 
6634.00 3.3953e-17 
6635.50 3.4032e-17 
6637.00 3.4111e-17 
6638.50 3.4190e-17 
6640.00 3.4269e-17 
6641.50 3.4348e-17 
6643.00 3.4427e-17 
6644.50 3.4506e-17 
6646.00 3.4585e-17 
6647.50 3.4664e-17 
6649.00 3.4743e-17 
6650.50 3.4822e-17 
6652.00 3.4901e-17 
6653.50 3.4979e-17 
6655.00 3.5058e-17 
6656.50 3.5137e-17 
6658.00 3.5216e-17 
6659.50 3.5295e-17 
6661.00 3.5374e-17 
6662.50 3.5452e-17 
6664.00 3.5531e-17 
6665.50 3.5610e-17 
6667.00 3.5689e-17 
6668.50 3.5768e-17 
6670.00 3.5846e-17 
6671.50 3.5925e-17 
6673.00 3.6004e-17 
6674.50 3.6082e-17 
6676.00 3.6161e-17 
6677.50 3.6240e-17 
6679.00 3.6318e-17 
6680.50 3.6397e-17 
6682.00 3.6476e-17 
6683.50 3.6554e-17 
6685.00 3.6633e-17 
6686.50 3.6714e-17 
6688.00 3.6792e-17 
6689.50 3.6871e-17 
6691.00 3.6949e-17 
6692.50 3.7028e-17 
6694.00 3.7106e-17 
6695.50 3.7185e-17 
6697.00 3.7264e-17 
6698.50 3.7342e-17 
6700.00 3.7421e-17 
6701.50 3.7499e-17 
6703.00 3.7578e-17 
6704.50 3.7656e-17 
6706.00 3.7734e-17 
6707.50 3.7813e-17 
6709.00 3.7891e-17 
6710.50 3.7970e-17 
6712.00 3.8048e-17 
6713.50 3.8126e-17 
6715.00 3.8205e-17 
6716.50 3.8283e-17 
6718.00 3.8361e-17 
6719.50 3.8440e-17 
6721.00 3.8518e-17 
6722.50 3.8596e-17 
6724.00 3.8675e-17 
6725.50 3.8753e-17 
6727.00 3.8831e-17 
6728.50 3.8910e-17 
6730.00 3.8988e-17 
6731.50 3.9066e-17 
6733.00 3.9144e-17 
6734.50 3.9222e-17 
6736.00 3.9301e-17 
6737.50 3.9381e-17 
6739.00 3.9460e-17 
6740.50 3.9538e-17 
6742.00 3.9616e-17 
6743.50 3.9694e-17 
6745.00 3.9772e-17 
6746.50 3.9850e-17 
6748.00 3.9928e-17 
6749.50 4.0007e-17 
6751.00 4.0085e-17 
6752.50 4.0163e-17 
6754.00 4.0241e-17 
6755.50 4.0319e-17 
6757.00 4.0397e-17 
6758.50 4.0475e-17 
6760.00 4.0553e-17 
6761.50 4.0631e-17 
6763.00 4.0709e-17 
6764.50 4.0787e-17 
6766.00 4.0865e-17 
6767.50 4.0943e-17 
6769.00 4.1020e-17 
6770.50 4.1098e-17 
6772.00 4.1176e-17 
6773.50 4.1254e-17 
6775.00 4.1332e-17 
6776.50 4.1410e-17 
6778.00 4.1488e-17 
6779.50 4.1569e-17 
6781.00 4.1647e-17 
6782.50 4.1724e-17 
6784.00 4.1802e-17 
6785.50 4.1880e-17 
6787.00 4.1958e-17 
6788.50 4.2035e-17 
6790.00 4.2113e-17 
6791.50 4.2191e-17 
6793.00 4.2269e-17 
6794.50 4.2346e-17 
6796.00 4.2424e-17 
6797.50 4.2502e-17 
6799.00 4.2579e-17 
6800.50 4.2657e-17 
6802.00 4.2735e-17 
6803.50 4.2812e-17 
6805.00 4.2890e-17 
6806.50 4.2968e-17 
6808.00 4.3045e-17 
6809.50 4.3123e-17 
6811.00 4.3200e-17 
6812.50 4.3278e-17 
6814.00 4.3355e-17 
6815.50 4.3437e-17 
6817.00 4.3514e-17 
6818.50 4.3592e-17 
6820.00 4.3669e-17 
6821.50 4.3747e-17 
6823.00 4.3824e-17 
6824.50 4.3901e-17 
6826.00 4.3979e-17 
6827.50 4.4056e-17 
6829.00 4.4134e-17 
6830.50 4.4211e-17 
6832.00 4.4289e-17 
6833.50 4.4366e-17 
6835.00 4.4443e-17 
6836.50 4.4521e-17 
6838.00 4.4598e-17 
6839.50 4.4675e-17 
6841.00 4.4753e-17 
6842.50 4.4830e-17 
6844.00 4.4907e-17 
6845.50 4.4984e-17 
6847.00 4.5063e-17 
6848.50 4.5143e-17 
6850.00 4.5220e-17 
6851.50 4.5298e-17 
6853.00 4.5375e-17 
6854.50 4.5452e-17 
6856.00 4.5529e-17 
6857.50 4.5606e-17 
6859.00 4.5683e-17 
6860.50 4.5761e-17 
6862.00 4.5838e-17 
6863.50 4.5915e-17 
6865.00 4.5992e-17 
6866.50 4.6069e-17 
6868.00 4.6146e-17 
6869.50 4.6223e-17 
6871.00 4.6300e-17 
6872.50 4.6377e-17 
6874.00 4.6454e-17 
6875.50 4.6531e-17 
6877.00 4.6611e-17 
6878.50 4.6690e-17 
6880.00 4.6767e-17 
6881.50 4.6844e-17 
6883.00 4.6921e-17 
6884.50 4.6998e-17 
6886.00 4.7075e-17 
6887.50 4.7151e-17 
6889.00 4.7228e-17 
6890.50 4.7305e-17 
6892.00 4.7382e-17 
6893.50 4.7459e-17 
6895.00 4.7536e-17 
6896.50 4.7613e-17 
6898.00 4.7689e-17 
6899.50 4.7766e-17 
6901.00 4.7843e-17 
6902.50 4.7920e-17 
6904.00 4.7998e-17 
6905.50 4.8078e-17 
6907.00 4.8155e-17 
6908.50 4.8232e-17 
6910.00 4.8308e-17 
6911.50 4.8385e-17 
6913.00 4.8462e-17 
6914.50 4.8539e-17 
6916.00 4.8615e-17 
6917.50 4.8692e-17 
6919.00 4.8768e-17 
6920.50 4.8845e-17 
6922.00 4.8922e-17 
6923.50 4.8998e-17 
6925.00 4.9075e-17 
6926.50 4.9151e-17 
6928.00 4.9228e-17 
6929.50 4.9305e-17 
6931.00 4.9386e-17 
6932.50 4.9463e-17 
6934.00 4.9539e-17 
6935.50 4.9616e-17 
6937.00 4.9692e-17 
6938.50 4.9769e-17 
6940.00 4.9845e-17 
6941.50 4.9922e-17 
6943.00 4.9998e-17 
6944.50 5.0074e-17 
6946.00 5.0151e-17 
6947.50 5.0227e-17 
6949.00 5.0304e-17 
6950.50 5.0380e-17 
6952.00 5.0456e-17 
6953.50 5.0533e-17 
6955.00 5.0614e-17 
6956.50 4.3450e-17 
6958.00 3.6078e-17 
6959.50 4.1379e-17 
6961.00 4.0703e-17 
6962.50 4.7857e-17 
6964.00 4.7206e-17 
6965.50 3.9640e-17 
6967.00 3.9633e-17 
6968.50 4.5115e-17 
6970.00 4.5367e-17 
6971.50 4.3271e-17 
6973.00 4.3458e-17 
6974.50 4.3907e-17 
6976.00 4.4107e-17 
6977.50 4.4210e-17 
6979.00 3.7478e-17 
6980.50 3.7973e-17 
6982.00 4.1405e-17 
6983.50 4.5643e-17 
6985.00 4.7459e-17 
6986.50 4.3991e-17 
6988.00 4.2732e-17 
6989.50 4.3647e-17 
6991.00 4.1417e-17 
6992.50 3.7969e-17 
6994.00 3.8865e-17 
6995.50 4.3740e-17 
6997.00 4.7206e-17 
6998.50 4.4174e-17 
7000.00 4.5075e-17 
7001.50 4.2994e-17 
7003.00 3.9982e-17 
7004.50 3.7541e-17 
7006.00 4.2708e-17 
7007.50 4.8203e-17 
7009.00 4.6263e-17 
7010.50 4.4185e-17 
7012.00 4.3803e-17 
7013.50 4.2822e-17 
7015.00 4.4392e-17 
7016.50 4.4473e-17 
7018.00 4.2966e-17 
7019.50 3.8233e-17 
7021.00 4.5941e-17 
7022.50 4.8360e-17 
7024.00 3.9469e-17 
7025.50 4.1363e-17 
7027.00 4.2838e-17 
7028.50 4.2168e-17 
7030.00 4.1962e-17 
7031.50 4.2996e-17 
7033.00 4.6474e-17 
7034.50 4.9976e-17 
7036.00 4.5563e-17 
7037.50 3.5234e-17 
7039.00 3.8556e-17 
7040.50 4.0328e-17 
7042.00 4.9596e-17 
7043.50 4.7061e-17 
7045.00 4.3189e-17 
7046.50 4.7772e-17 
7048.00 4.3026e-17 
7049.50 3.8579e-17 
7051.00 4.2044e-17 
7052.50 4.5253e-17 
7054.00 4.0813e-17 
7055.50 3.8295e-17 
7057.00 4.7505e-17 
7058.50 4.5013e-17 
7060.00 3.8558e-17 
7061.50 4.2555e-17 
7063.00 3.6888e-17 
7064.50 4.4458e-17 
7066.00 4.8221e-17 
7067.50 4.5711e-17 
7069.00 4.6093e-17 
7070.50 4.5629e-17 
7072.00 4.5592e-17 
7073.50 4.5123e-17 
7075.00 3.9834e-17 
7076.50 4.2561e-17 
7078.00 4.4044e-17 
7079.50 4.3488e-17 
7081.00 4.6855e-17 
7082.50 5.2637e-17 
7084.00 4.4270e-17 
7085.50 4.0847e-17 
7087.00 4.2807e-17 
7088.50 4.4070e-17 
7090.00 3.9811e-17 
7091.50 3.7283e-17 
7093.00 4.0211e-17 
7094.50 3.7258e-17 
7096.00 3.5786e-17 
7097.50 3.7237e-17 
7099.00 4.2785e-17 
7100.50 4.4509e-17 
7102.00 4.6418e-17 
7103.50 4.0815e-17 
7105.00 3.8767e-17 
7106.50 3.9703e-17 
7108.00 4.4100e-17 
7109.50 4.7398e-17 
7111.00 4.4585e-17 
7112.50 4.0693e-17 
7114.00 3.9893e-17 
7115.50 3.9917e-17 
7117.00 4.1212e-17 
7118.50 4.1347e-17 
7120.00 4.2230e-17 
7121.50 4.1501e-17 
7123.00 4.0211e-17 
7124.50 4.2039e-17 
7126.00 3.8943e-17 
7127.50 3.6986e-17 
7129.00 4.5373e-17 
7130.50 4.7077e-17 
7132.00 4.0311e-17 
7133.50 4.0681e-17 
7135.00 4.2939e-17 
7136.50 4.2029e-17 
7138.00 4.4531e-17 
7139.50 4.4330e-17 
7141.00 4.1669e-17 
7142.50 4.3171e-17 
7144.00 4.6506e-17 
7145.50 4.6871e-17 
7147.00 4.7138e-17 
7148.50 4.8300e-17 
7150.00 4.0735e-17 
7151.50 4.2391e-17 
7153.00 4.6754e-17 
7154.50 4.4587e-17 
7156.00 4.3378e-17 
7157.50 4.3523e-17 
7159.00 4.4579e-17 
7160.50 4.4869e-17 
7162.00 4.3304e-17 
7163.50 4.0871e-17 
7165.00 3.9345e-17 
7166.50 3.9225e-17 
7168.00 3.9476e-17 
7169.50 4.5812e-17 
7171.00 4.9825e-17 
7172.50 4.3848e-17 
7174.00 4.1696e-17 
7175.50 4.3346e-17 
7177.00 4.2621e-17 
7178.50 3.8787e-17 
7180.00 3.7548e-17 
7181.50 4.1295e-17 
7183.00 4.0931e-17 
7184.50 4.6193e-17 
7186.00 4.2337e-17 
7187.50 3.8567e-17 
7189.00 3.9454e-17 
7190.50 3.9530e-17 
7192.00 4.1626e-17 
7193.50 4.3102e-17 
7195.00 4.1889e-17 
7196.50 4.2602e-17 
7198.00 4.0514e-17 
7199.50 3.9575e-17 
7201.00 4.3136e-17 
7202.50 4.0814e-17 
7204.00 4.3249e-17 
7205.50 4.0570e-17 
7207.00 4.2456e-17 
7208.50 4.3306e-17 
7210.00 3.9900e-17 
7211.50 3.9961e-17 
7213.00 4.3753e-17 
7214.50 4.0412e-17 
7216.00 3.7278e-17 
7217.50 3.9355e-17 
7219.00 4.4352e-17 
7220.50 4.0755e-17 
7222.00 4.2626e-17 
7223.50 4.2641e-17 
7225.00 4.1883e-17 
7226.50 4.3912e-17 
7228.00 3.7948e-17 
7229.50 3.9359e-17 
7231.00 4.0639e-17 
7232.50 4.1016e-17 
7234.00 4.4694e-17 
7235.50 3.9668e-17 
7237.00 3.5063e-17 
7238.50 4.2533e-17 
7240.00 5.5903e-17 
7241.50 6.0850e-17 
7243.00 5.4065e-17 
7244.50 4.0107e-17 
7246.00 4.6892e-17 
7247.50 3.1009e-17 
7249.00 3.5613e-17 
7250.50 4.5343e-17 
7252.00 4.7848e-17 
7253.50 4.9356e-17 
7255.00 4.7061e-17 
7256.50 3.8324e-17 
7258.00 3.8537e-17 
7259.50 4.3131e-17 
7261.00 3.7162e-17 
7262.50 4.7358e-17 
7264.00 4.1736e-17 
7265.50 4.0261e-17 
7267.00 3.8774e-17 
7268.50 4.0570e-17 
7270.00 4.2814e-17 
7271.50 3.9995e-17 
7273.00 4.1854e-17 
7274.50 3.7476e-17 
7276.00 5.0654e-17 
7277.50 3.1285e-17 
7279.00 3.3934e-17 
7280.50 3.5004e-17 
7282.00 4.0546e-17 
7283.50 4.3972e-17 
7285.00 4.0125e-17 
7286.50 3.8843e-17 
7288.00 3.1415e-17 
7289.50 4.9396e-17 
7291.00 3.4325e-17 
7292.50 3.3360e-17 
7294.00 3.4668e-17 
7295.50 3.7192e-17 
7297.00 4.1154e-17 
7298.50 4.0930e-17 
7300.00 3.4113e-17 
7301.50 3.6427e-17 
7303.00 4.5404e-17 
7304.50 4.6615e-17 
7306.00 4.1373e-17 
7307.50 3.7070e-17 
7309.00 3.6605e-17 
7310.50 3.4824e-17 
7312.00 3.4260e-17 
7313.50 3.8048e-17 
7315.00 3.6610e-17 
7316.50 3.2750e-17 
7318.00 4.3094e-17 
7319.50 3.9196e-17 
7321.00 5.0637e-17 
7322.50 4.7092e-17 
7324.00 4.0257e-17 
7325.50 3.9290e-17 
7327.00 4.0071e-17 
7328.50 3.8487e-17 
7330.00 4.0809e-17 
7331.50 4.3971e-17 
7333.00 3.7845e-17 
7334.50 4.1831e-17 
7336.00 4.3023e-17 
7337.50 3.9829e-17 
7339.00 3.7759e-17 
7340.50 4.4334e-17 
7342.00 5.7285e-17 
7343.50 2.4560e-17 
7345.00 4.9183e-17 
7346.50 4.5986e-17 
7348.00 3.7833e-17 
7349.50 3.8228e-17 
7351.00 3.7471e-17 
7352.50 3.2845e-17 
7354.00 3.3957e-17 
7355.50 4.3925e-17 
7357.00 1.8418e-17 
7358.50 5.8823e-17 
7360.00 4.8506e-17 
7361.50 4.6615e-17 
7363.00 4.7505e-17 
7364.50 4.4459e-17 
7366.00 3.9313e-17 
7367.50 3.7658e-17 
7369.00 3.6961e-17 
7370.50 6.3298e-17 
7372.00 3.4218e-17 
7373.50 4.2686e-17 
7375.00 4.8334e-17 
7376.50 4.4461e-17 
7378.00 3.9100e-17 
7379.50 3.7170e-17 
7381.00 3.3001e-17 
7382.50 3.2629e-17 
7384.00 3.7893e-17 
7385.50 3.3086e-17 
7387.00 3.9525e-17 
7388.50 3.9105e-17 
7390.00 3.5839e-17 
7391.50 3.8921e-17 
7393.00 4.3669e-17 
7394.50 2.3351e-17 
7396.00 4.4971e-17 
7397.50 4.6519e-17 
7399.00 4.1044e-17 
7400.50 4.4437e-17 
7402.00 5.3404e-17 
7403.50 4.8899e-17 
7405.00 3.3875e-17 
7406.50 4.9068e-17 
7408.00 4.0503e-17 
7409.50 4.2626e-17 
7411.00 3.6333e-17 
7412.50 4.1735e-17 
7414.00 3.9937e-17 
7415.50 3.8373e-17 
7417.00 4.0790e-17 
7418.50 3.3859e-17 
7420.00 3.5145e-17 
7421.50 3.2836e-17 
7423.00 3.9168e-17 
7424.50 3.5677e-17 
7426.00 3.2096e-17 
7427.50 3.4555e-17 
7429.00 4.0088e-17 
7430.50 4.1418e-17 
7432.00 4.3122e-17 
7433.50 4.3295e-17 
7435.00 3.2253e-17 
7436.50 3.6575e-17 
7438.00 3.8643e-17 
7439.50 3.4517e-17 
7441.00 3.2937e-17 
7442.50 4.1455e-17 
7444.00 4.1063e-17 
7445.50 3.5691e-17 
7447.00 4.0268e-17 
7448.50 4.2114e-17 
7450.00 4.0824e-17 
7451.50 4.0965e-17 
7453.00 4.2202e-17 
7454.50 3.9585e-17 
7456.00 3.3995e-17 
7457.50 3.8633e-17 
7459.00 4.0890e-17 
7460.50 3.8200e-17 
7462.00 3.7644e-17 
7463.50 3.8274e-17 
7465.00 3.6467e-17 
7466.50 3.2723e-17 
7468.00 4.2412e-17 
7469.50 4.1946e-17 
7471.00 4.0965e-17 
7472.50 3.9547e-17 
7474.00 4.1269e-17 
7475.50 4.2169e-17 
7477.00 3.9199e-17 
7478.50 3.5359e-17 
7480.00 3.6337e-17 
7481.50 4.0549e-17 
7483.00 3.9148e-17 
7484.50 3.7198e-17 
7486.00 3.8741e-17 
7487.50 4.0781e-17 
7489.00 3.9817e-17 
7490.50 3.8585e-17 
7492.00 3.6697e-17 
7493.50 3.6961e-17 
7495.00 3.9169e-17 
7496.50 3.6036e-17 
7498.00 3.7693e-17 
7499.50 4.3060e-17 
7501.00 4.2198e-17 
7502.50 3.5774e-17 
7504.00 3.8607e-17 
7505.50 3.4093e-17 
7507.00 3.3428e-17 
7508.50 3.8294e-17 
7510.00 4.1443e-17 
7511.50 3.8784e-17 
7513.00 3.5370e-17 
7514.50 3.7106e-17 
7516.00 3.5943e-17 
7517.50 3.3873e-17 
7519.00 3.7362e-17 
7520.50 3.8398e-17 
7522.00 3.7563e-17 
7523.50 4.0110e-17 
7525.00 4.2722e-17 
7526.50 3.4556e-17 
7528.00 3.4520e-17 
7529.50 4.1527e-17 
7531.00 4.1979e-17 
7532.50 3.8533e-17 
7534.00 3.6042e-17 
7535.50 3.3128e-17 
7537.00 3.2473e-17 
7538.50 3.6146e-17 
7540.00 3.4436e-17 
7541.50 3.4541e-17 
7543.00 3.7062e-17 
7544.50 3.7944e-17 
7546.00 3.3837e-17 
7547.50 3.6828e-17 
7549.00 3.6396e-17 
7550.50 3.4319e-17 
7552.00 3.4832e-17 
7553.50 3.5846e-17 
7555.00 3.6624e-17 
7556.50 3.7641e-17 
7558.00 3.9529e-17 
7559.50 3.5449e-17 
7561.00 3.4899e-17 
7562.50 3.8546e-17 
7564.00 4.1050e-17 
7565.50 3.9007e-17 
7567.00 3.5274e-17 
7568.50 3.9895e-17 
7570.00 3.2290e-17 
7571.50 3.9417e-17 
7573.00 3.9768e-17 
7574.50 2.8950e-17 
7576.00 2.2612e-17 
7577.50 2.9480e-17 
7579.00 3.9571e-17 
7580.50 3.4785e-17 
7582.00 3.9962e-17 
7583.50 3.3629e-17 
7585.00 3.3294e-17 
7586.50 3.5883e-17 
7588.00 3.7878e-17 
7589.50 4.0375e-17 
7591.00 4.2921e-17 
7592.50 3.1827e-17 
7594.00 3.1236e-17 
7595.50 3.5457e-17 
7597.00 4.1955e-17 
7598.50 4.4407e-17 
7600.00 3.5218e-17 
7601.50 2.4779e-17 
7603.00 3.4268e-17 
7604.50 4.4992e-17 
7606.00 4.3064e-17 
7607.50 3.4614e-17 
7609.00 2.6774e-17 
7610.50 2.3520e-17 
7612.00 3.4991e-17 
7613.50 4.8536e-17 
7615.00 4.8048e-17 
7616.50 3.3797e-17 
7618.00 2.9372e-17 
7619.50 3.6031e-17 
7621.00 2.7181e-17 
7622.50 3.0949e-17 
7624.00 2.8205e-17 
7625.50 2.7885e-17 
7627.00 3.0682e-17 
7628.50 3.6376e-17 
7630.00 3.8345e-17 
7631.50 2.4364e-17 
7633.00 4.4124e-17 
7634.50 3.9527e-17 
7636.00 3.7592e-17 
7637.50 3.4421e-17 
7639.00 3.7856e-17 
7640.50 4.7635e-17 
7642.00 3.9898e-17 
7643.50 3.4402e-17 
7645.00 3.5550e-17 
7646.50 4.2142e-17 
7648.00 3.9367e-17 
7649.50 3.5376e-17 
7651.00 4.1906e-17 
7652.50 4.0784e-17 
7654.00 3.8950e-17 
7655.50 4.0404e-17 
7657.00 3.8597e-17 
7658.50 3.8393e-17 
7660.00 3.8114e-17 
7661.50 3.2986e-17 
7663.00 4.4362e-17 
7664.50 3.8990e-17 
7666.00 2.8095e-17 
7667.50 3.0241e-17 
7669.00 3.6431e-17 
7670.50 3.7960e-17 
7672.00 3.6553e-17 
7673.50 3.6209e-17 
7675.00 3.0888e-17 
7676.50 3.4238e-17 
7678.00 3.7524e-17 
7679.50 3.8050e-17 
7681.00 3.6490e-17 
7682.50 3.4550e-17 
7684.00 2.7966e-17 
7685.50 3.2842e-17 
7687.00 3.6932e-17 
7688.50 3.6515e-17 
7690.00 3.5344e-17 
7691.50 4.2376e-17 
7693.00 3.8530e-17 
7694.50 3.8912e-17 
7696.00 3.5796e-17 
7697.50 3.5236e-17 
7699.00 3.8688e-17 
7700.50 4.3002e-17 
7702.00 3.6074e-17 
7703.50 3.0155e-17 
7705.00 3.3512e-17 
7706.50 3.9156e-17 
7708.00 4.4486e-17 
7709.50 4.6537e-17 
7711.00 4.3079e-17 
7712.50 5.6209e-17 
7714.00 2.9946e-17 
7715.50 4.0868e-17 
7717.00 5.2682e-17 
7718.50 4.9244e-17 
7720.00 3.0677e-17 
7721.50 2.9428e-17 
7723.00 3.6828e-17 
7724.50 3.6452e-17 
7726.00 3.7116e-17 
7727.50 3.8080e-17 
7729.00 3.8461e-17 
7730.50 3.8923e-17 
7732.00 3.6854e-17 
7733.50 3.5175e-17 
7735.00 3.6755e-17 
7736.50 3.8658e-17 
7738.00 4.0233e-17 
7739.50 4.2050e-17 
7741.00 3.8982e-17 
7742.50 3.1337e-17 
7744.00 3.3322e-17 
7745.50 3.6529e-17 
7747.00 3.9569e-17 
7748.50 4.3468e-17 
7750.00 5.1801e-17 
7751.50 3.5452e-17 
7753.00 2.4192e-17 
7754.50 3.8799e-17 
7756.00 4.8124e-17 
7757.50 3.8321e-17 
7759.00 4.2093e-17 
7760.50 4.2010e-17 
7762.00 2.8943e-17 
7763.50 3.1353e-17 
7765.00 3.6643e-17 
7766.50 3.9999e-17 
7768.00 4.6678e-17 
7769.50 3.9104e-17 
7771.00 3.6472e-17 
7772.50 3.7212e-17 
7774.00 3.6668e-17 
7775.50 3.4262e-17 
7777.00 3.2432e-17 
7778.50 3.8950e-17 
7780.00 3.7897e-17 
7781.50 4.0316e-17 
7783.00 4.1713e-17 
7784.50 4.3449e-17 
7786.00 4.7243e-17 
7787.50 3.7946e-17 
7789.00 3.8384e-17 
7790.50 4.5809e-17 
7792.00 4.3971e-17 
7793.50 3.8637e-17 
7795.00 3.9186e-17 
7796.50 4.0631e-17 
7798.00 5.0634e-17 
7799.50 4.7157e-17 
7801.00 4.0430e-17 
7802.50 3.5223e-17 
7804.00 3.4332e-17 
7805.50 3.6363e-17 
7807.00 3.7795e-17 
7808.50 3.6606e-17 
7810.00 3.5468e-17 
7811.50 3.1844e-17 
7813.00 2.7004e-17 
7814.50 4.1594e-17 
7816.00 4.4075e-17 
7817.50 4.0764e-17 
7819.00 3.9566e-17 
7820.50 4.0078e-17 
7822.00 3.8128e-17 
7823.50 1.7577e-17 
7825.00 3.6369e-17 
7826.50 5.0393e-17 
7828.00 4.7491e-17 
7829.50 4.0350e-17 
7831.00 4.1255e-17 
7832.50 4.1343e-17 
7834.00 3.9528e-17 
7835.50 4.1726e-17 
7837.00 4.0389e-17 
7838.50 3.7909e-17 
7840.00 3.8695e-17 
7841.50 4.8891e-17 
7843.00 3.9943e-17 
7844.50 3.5043e-17 
7846.00 3.6658e-17 
7847.50 3.9185e-17 
7849.00 3.5881e-17 
7850.50 3.0993e-17 
7852.00 3.3910e-17 
7853.50 4.5530e-17 
7855.00 4.1674e-17 
7856.50 3.2545e-17 
7858.00 4.0107e-17 
7859.50 4.0841e-17 
7861.00 4.2408e-17 
7862.50 2.4332e-17 
7864.00 2.3491e-17 
7865.50 3.9446e-17 
7867.00 4.7494e-17 
7868.50 5.2428e-17 
7870.00 4.5496e-17 
7871.50 3.9049e-17 
7873.00 3.6660e-17 
7874.50 3.9801e-17 
7876.00 4.8089e-17 
7877.50 5.1365e-17 
7879.00 3.9866e-17 
7880.50 3.5541e-17 
7882.00 3.6614e-17 
7883.50 4.0553e-17 
7885.00 4.6981e-17 
7886.50 3.9088e-17 
7888.00 4.4301e-17 
7889.50 4.4658e-17 
7891.00 3.9422e-17 
7892.50 3.2794e-17 
7894.00 4.7716e-17 
7895.50 3.6893e-17 
7897.00 4.1032e-17 
7898.50 4.1197e-17 
7900.00 3.8036e-17 
7901.50 4.0867e-17 
7903.00 4.5293e-17 
7904.50 4.1142e-17 
7906.00 4.0898e-17 
7907.50 4.3126e-17 
7909.00 4.5291e-17 
7910.50 4.1889e-17 
7912.00 4.7532e-17 
7913.50 5.1284e-17 
7915.00 3.1786e-17 
7916.50 1.5571e-17 
7918.00 2.6611e-17 
7919.50 5.2878e-17 
7921.00 4.6378e-17 
7922.50 4.2819e-17 
7924.00 3.6523e-17 
7925.50 3.4139e-17 
7927.00 4.8859e-17 
7928.50 4.2199e-17 
7930.00 4.4163e-17 
7931.50 4.5013e-17 
7933.00 4.1815e-17 
7934.50 3.3505e-17 
7936.00 2.0845e-17 
7937.50 3.8667e-17 
7939.00 3.9507e-17 
7940.50 4.1141e-17 
7942.00 4.3542e-17 
7943.50 4.3791e-17 
7945.00 3.8967e-17 
7946.50 3.5689e-17 
7948.00 3.9667e-17 
7949.50 4.2732e-17 
7951.00 4.1448e-17 
7952.50 3.5595e-17 
7954.00 4.3382e-17 
7955.50 4.7984e-17 
7957.00 5.3350e-17 
7958.50 5.3000e-17 
7960.00 4.1776e-17 
7961.50 4.3390e-17 
7963.00 5.2843e-17 
7964.50 5.1936e-17 
7966.00 3.6447e-17 
7967.50 1.8843e-17 
7969.00 4.2572e-17 
7970.50 4.7829e-17 
7972.00 5.4206e-17 
7973.50 5.1451e-17 
7975.00 4.6831e-17 
7976.50 4.9201e-17 
7978.00 5.2344e-17 
7979.50 5.5558e-17 
7981.00 5.4914e-17 
7982.50 5.3923e-17 
7984.00 5.3042e-17 
7985.50 4.7962e-17 
7987.00 5.2261e-17 
7988.50 5.4834e-17 
7990.00 5.4668e-17 
7991.50 5.4148e-17 
7993.00 5.6912e-17 
7994.50 6.5413e-17 
7996.00 3.3867e-17 
7997.50 3.7919e-17 
7999.00 5.0971e-17 
8000.50 5.5514e-17 
8002.00 4.9065e-17 
8003.50 4.6944e-17 
8005.00 4.9296e-17 
8006.50 5.0120e-17 
8008.00 4.9378e-17 
8009.50 5.0464e-17 
8011.00 3.9942e-17 
8012.50 4.2634e-17 
8014.00 4.9028e-17 
8015.50 5.3760e-17 
8017.00 5.1774e-17 
8018.50 3.9199e-17 
8020.00 4.3196e-17 
8021.50 4.2465e-17 
8023.00 4.3132e-17 
8024.50 4.7617e-17 
8026.00 5.2618e-17 
8027.50 4.5277e-17 
8029.00 3.9701e-17 
8030.50 4.3806e-17 
8032.00 5.1358e-17 
8033.50 4.1788e-17 
8035.00 3.8961e-17 
8036.50 4.2538e-17 
8038.00 4.5536e-17 
8039.50 4.7229e-17 
8041.00 4.7420e-17 
8042.50 3.9264e-17 
8044.00 3.0800e-17 
8045.50 3.2553e-17 
8047.00 3.7301e-17 
8048.50 3.9503e-17 
8050.00 3.4859e-17 
8051.50 3.8936e-17 
8053.00 3.8873e-17 
8054.50 4.2066e-17 
8056.00 4.8407e-17 
8057.50 4.5293e-17 
8059.00 3.5833e-17 
8060.50 5.3574e-17 
8062.00 5.9207e-17 
8063.50 4.9867e-17 
8065.00 3.7221e-17 
8066.50 4.3915e-17 
8068.00 4.5874e-17 
8069.50 4.6481e-17 
8071.00 4.4921e-17 
8072.50 3.9555e-17 
8074.00 3.9629e-17 
8075.50 4.0612e-17 
8077.00 4.0306e-17 
8078.50 4.0698e-17 
8080.00 4.3474e-17 
8081.50 3.6080e-17 
8083.00 3.7667e-17 
8084.50 3.7647e-17 
8086.00 3.6933e-17 
8087.50 3.6362e-17 
8089.00 3.9203e-17 
8090.50 4.0749e-17 
8092.00 4.2348e-17 
8093.50 4.1554e-17 
8095.00 3.8061e-17 
8096.50 3.7829e-17 
8098.00 3.4438e-17 
8099.50 3.3012e-17 
8101.00 3.4565e-17 
8102.50 3.9026e-17 
8104.00 4.4638e-17 
8105.50 3.6943e-17 
8107.00 4.2578e-17 
8108.50 4.3413e-17 
8110.00 3.7839e-17 
8111.50 3.5177e-17 
8113.00 3.4404e-17 
8114.50 3.8304e-17 
8116.00 3.8812e-17 
8117.50 3.6769e-17 
8119.00 3.9347e-17 
8120.50 3.7686e-17 
8122.00 3.2580e-17 
8123.50 3.3092e-17 
8125.00 3.6405e-17 
8126.50 3.1638e-17 
8128.00 3.0813e-17 
8129.50 3.4738e-17 
8131.00 3.8770e-17 
8132.50 4.0663e-17 
8134.00 3.6253e-17 
8135.50 3.4324e-17 
8137.00 3.5148e-17 
8138.50 3.5329e-17 
8140.00 3.5317e-17 
8141.50 3.6952e-17 
8143.00 4.3183e-17 
8144.50 3.8528e-17 
8146.00 4.0183e-17 
8147.50 4.5192e-17 
8149.00 4.3338e-17 
8150.50 4.3194e-17 
8152.00 3.7027e-17 
8153.50 3.7332e-17 
8155.00 4.1289e-17 
8156.50 3.9364e-17 
8158.00 3.3978e-17 
8159.50 3.1413e-17 
8161.00 3.1772e-17 
8162.50 3.4251e-17 
8164.00 3.6913e-17 
8165.50 3.7143e-17 
8167.00 4.0904e-17 
8168.50 3.8970e-17 
8170.00 3.4732e-17 
8171.50 4.3332e-17 
8173.00 4.0784e-17 
8174.50 3.7500e-17 
8176.00 4.0702e-17 
8177.50 4.6573e-17 
8179.00 3.4060e-17 
8180.50 3.7947e-17 
8182.00 3.4679e-17 
8183.50 3.2553e-17 
8185.00 3.4068e-17 
8186.50 4.3435e-17 
8188.00 3.7166e-17 
8189.50 3.8088e-17 
8191.00 3.8146e-17 
8192.50 3.5512e-17 
8194.00 3.5421e-17 
8195.50 4.1628e-17 
8197.00 3.5700e-17 
8198.50 3.0179e-17 
8200.00 3.0943e-17 
8201.50 3.8621e-17 
8203.00 3.8587e-17 
8204.50 3.8834e-17 
8206.00 3.6523e-17 
8207.50 2.9617e-17 
8209.00 4.0252e-17 
8210.50 3.6318e-17 
8212.00 3.6422e-17 
8213.50 3.6399e-17 
8215.00 3.1127e-17 
8216.50 3.4471e-17 
8218.00 3.8335e-17 
8219.50 3.8923e-17 
8221.00 3.8170e-17 
8222.50 4.0416e-17 
8224.00 3.6122e-17 
8225.50 3.6756e-17 
8227.00 3.4768e-17 
8228.50 3.0999e-17 
8230.00 3.1827e-17 
8231.50 3.3313e-17 
8233.00 3.9530e-17 
8234.50 4.1117e-17 
8236.00 3.6205e-17 
8237.50 3.2305e-17 
8239.00 3.5378e-17 
8240.50 3.7172e-17 
8242.00 3.6654e-17 
8243.50 3.3069e-17 
8245.00 3.4307e-17 
8246.50 3.3080e-17 
8248.00 3.4445e-17 
8249.50 3.5533e-17 
8251.00 3.2576e-17 
8252.50 3.4035e-17 
8254.00 2.6653e-17 
8255.50 2.7965e-17 
8257.00 3.5152e-17 
8258.50 3.8248e-17 
8260.00 2.8728e-17 
8261.50 3.0886e-17 
8263.00 3.3617e-17 
8264.50 3.4919e-17 
8266.00 3.7960e-17 
8267.50 3.3238e-17 
8269.00 3.4450e-17 
8270.50 3.5614e-17 
8272.00 3.3341e-17 
8273.50 3.2594e-17 
8275.00 3.9640e-17 
8276.50 3.7156e-17 
8278.00 3.4409e-17 
8279.50 4.8639e-17 
8281.00 1.8528e-17 
8282.50 4.7309e-17 
8284.00 5.8068e-17 
8285.50 4.7255e-17 
8287.00 4.9309e-17 
8288.50 4.2094e-17 
8290.00 4.3814e-17 
8291.50 4.0476e-17 
8293.00 2.6090e-17 
8294.50 5.9851e-17 
8296.00 3.7440e-17 
8297.50 3.7144e-17 
8299.00 4.7960e-17 
8300.50 5.6432e-17 
8302.00 3.2456e-17 
8303.50 3.2657e-17 
8305.00 3.6755e-17 
8306.50 3.9723e-17 
8308.00 2.1857e-17 
8309.50 3.2512e-17 
8311.00 3.2284e-17 
8312.50 3.1626e-17 
8314.00 3.5898e-17 
8315.50 3.7305e-17 
8317.00 4.1501e-17 
8318.50 3.8960e-17 
8320.00 3.4072e-17 
8321.50 3.7145e-17 
8323.00 4.2755e-17 
8324.50 3.9436e-17 
8326.00 3.7053e-17 
8327.50 3.7487e-17 
8329.00 3.4830e-17 
8330.50 3.4477e-17 
8332.00 3.1108e-17 
8333.50 2.9201e-17 
8335.00 3.4760e-17 
8336.50 2.7029e-17 
8338.00 3.3463e-17 
8339.50 3.5768e-17 
8341.00 3.2343e-17 
8342.50 2.1993e-17 
8344.00 5.6644e-17 
8345.50 6.2693e-17 
8347.00 4.7900e-17 
8348.50 8.5371e-18 
8350.00 4.5384e-17 
8351.50 5.3785e-17 
8353.00 5.1445e-17 
8354.50 4.3170e-17 
8356.00 4.2985e-17 
8357.50 3.3779e-17 
8359.00 2.8584e-17 
8360.50 3.1946e-17 
8362.00 4.8322e-17 
8363.50 3.0147e-17 
8365.00 4.6129e-17 
8366.50 4.2181e-17 
8368.00 2.9095e-17 
8369.50 3.9487e-17 
8371.00 3.8876e-17 
8372.50 4.0923e-17 
8374.00 4.1345e-17 
8375.50 3.8192e-17 
8377.00 3.0636e-17 
8378.50 3.2705e-17 
8380.00 3.2386e-17 
8381.50 3.1795e-17 
8383.00 3.8213e-17 
8384.50 3.1484e-17 
8386.00 2.6822e-17 
8387.50 2.7014e-17 
8389.00 3.4654e-17 
8390.50 2.8650e-17 
8392.00 2.7869e-17 
8393.50 2.9618e-17 
8395.00 3.1507e-17 
8396.50 2.4064e-17 
8398.00 4.5014e-17 
8399.50 5.3482e-17 
8401.00 5.5123e-17 
8402.50 4.9417e-17 
8404.00 3.4446e-17 
8405.50 3.7345e-17 
8407.00 3.3772e-17 
8408.50 2.6220e-17 
8410.00 3.3838e-17 
8411.50 3.8952e-17 
8413.00 4.2367e-17 
8414.50 4.4264e-17 
8416.00 4.3682e-17 
8417.50 7.0934e-17 
8419.00 4.4135e-17 
8420.50 3.0263e-17 
8422.00 3.5406e-17 
8423.50 3.7430e-17 
8425.00 3.6849e-17 
8426.50 3.4300e-17 
8428.00 3.3451e-17 
8429.50 4.2646e-17 
8431.00 1.0739e-16 
8432.50 4.2536e-17 
8434.00 4.6221e-18 
8435.50 4.2679e-17 
8437.00 4.3419e-17 
8438.50 3.0888e-17 
8440.00 2.7080e-17 
8441.50 2.9679e-17 
8443.00 3.1362e-17 
8444.50 3.0658e-17 
8446.00 3.3485e-17 
8447.50 3.1958e-17 
8449.00 1.6149e-17 
8450.50 3.9706e-17 
8452.00 4.1441e-17 
8453.50 3.8593e-17 
8455.00 3.2543e-17 
8456.50 1.4396e-17 
8458.00 3.1403e-17 
8459.50 3.6164e-17 
8461.00 3.5326e-17 
8462.50 4.3351e-17 
8464.00 2.0800e-17 
8465.50 5.6271e-17 
8467.00 7.4411e-17 
8468.50 1.9868e-17 
8470.00 3.9083e-17 
8471.50 4.6489e-17 
8473.00 4.2518e-17 
8474.50 2.7955e-17 
8476.00 3.9933e-17 
8477.50 3.0717e-17 
8479.00 2.7846e-17 
8480.50 2.8403e-17 
8482.00 2.7737e-17 
8483.50 3.5252e-17 
8485.00 3.3570e-17 
8486.50 3.0885e-17 
8488.00 3.1864e-17 
8489.50 2.3781e-17 
8491.00 3.4550e-17 
8492.50 3.8893e-17 
8494.00 3.2829e-17 
8495.50 4.9597e-17 
8497.00 2.7079e-17 
8498.50 2.3523e-17 
8500.00 3.2872e-17 
8501.50 3.7098e-17 
8503.00 4.2343e-17 
8504.50 4.8623e-17 
8506.00 5.5221e-17 
8507.50 6.1746e-17 
8509.00 5.2609e-17 
8510.50 3.7430e-17 
8512.00 2.9745e-17 
8513.50 3.8102e-17 
8515.00 2.4501e-17 
8516.50 3.1443e-17 
8518.00 3.4186e-17 
8519.50 3.1270e-17 
8521.00 2.8504e-17 
8522.50 2.8326e-17 
8524.00 3.4260e-17 
8525.50 4.2421e-17 
8527.00 3.9602e-17 
8528.50 3.7231e-17 
8530.00 3.8213e-17 
8531.50 4.0732e-17 
8533.00 4.4602e-17 
8534.50 2.9851e-17 
8536.00 3.1246e-17 
8537.50 3.5748e-17 
8539.00 4.0679e-17 
8540.50 2.7424e-17 
8542.00 4.0237e-17 
8543.50 4.3279e-17 
8545.00 3.1932e-17 
8546.50 3.8170e-17 
8548.00 3.0933e-17 
8549.50 3.8035e-17 
8551.00 5.3289e-17 
8552.50 2.8416e-17 
8554.00 3.9548e-17 
8555.50 4.0816e-17 
8557.00 3.6700e-17 
8558.50 2.9269e-17 
8560.00 3.1729e-17 
8561.50 2.9523e-17 
8563.00 2.7292e-17 
8564.50 2.9748e-17 
8566.00 3.2380e-17 
8567.50 3.3300e-17 
8569.00 3.3782e-17 
8570.50 3.3969e-17 
8572.00 4.2004e-17 
8573.50 3.7274e-17 
8575.00 3.3298e-17 
8576.50 3.2086e-17 
8578.00 3.1987e-17 
8579.50 2.6994e-17 
8581.00 2.8855e-17 
8582.50 3.7216e-17 
8584.00 2.6549e-17 
8585.50 3.0099e-17 
8587.00 3.1045e-17 
8588.50 3.0419e-17 
8590.00 3.3535e-17 
8591.50 3.0849e-17 
8593.00 2.9646e-17 
8594.50 2.9579e-17 
8596.00 3.2315e-17 
8597.50 4.2139e-17 
8599.00 3.1935e-17 
8600.50 1.8423e-17 
8602.00 2.2662e-17 
8603.50 3.6606e-17 
8605.00 3.3189e-17 
8606.50 2.9060e-17 
8608.00 3.6759e-17 
8609.50 2.9562e-17 
8611.00 2.7442e-17 
8612.50 2.8830e-17 
8614.00 3.6563e-17 
8615.50 3.7784e-17 
8617.00 2.9763e-17 
8618.50 2.8465e-17 
8620.00 4.1691e-17 
8621.50 2.7959e-17 
8623.00 2.6904e-17 
8624.50 3.2034e-17 
8626.00 4.4928e-17 
8627.50 3.5699e-17 
8629.00 3.8551e-17 
8630.50 4.7685e-17 
8632.00 6.3744e-17 
8633.50 4.0336e-17 
8635.00 3.0546e-17 
8636.50 3.8459e-17 
8638.00 6.3239e-17 
8639.50 4.6799e-17 
8641.00 4.3884e-17 
8642.50 3.9298e-17 
8644.00 3.3731e-17 
8645.50 4.0946e-17 
8647.00 3.5946e-17 
8648.50 3.5397e-17 
8650.00 3.8448e-17 
8651.50 4.8531e-17 
8653.00 3.9525e-17 
8654.50 3.7750e-17 
8656.00 3.9164e-17 
8657.50 2.1653e-17 
8659.00 4.4653e-17 
8660.50 5.3478e-17 
8662.00 5.1655e-17 
8663.50 2.0716e-17 
8665.00 1.4066e-17 
8666.50 2.5273e-17 
8668.00 4.2219e-17 
8669.50 2.2116e-17 
8671.00 4.6532e-17 
8672.50 4.2840e-17 
8674.00 2.7207e-17 
8675.50 2.9112e-17 
8677.00 6.4679e-17 
8678.50 6.1840e-17 
8680.00 4.3194e-17 
8681.50 4.2838e-17 
8683.00 2.3893e-17 
8684.50 2.5683e-17 
8686.00 3.4037e-17 
8687.50 1.7791e-17 
8689.00 3.4477e-17 
8690.50 4.1404e-17 
8692.00 4.3310e-17 
8693.50 3.8903e-17 
8695.00 3.9565e-17 
8696.50 3.5354e-17 
8698.00 2.8720e-17 
8699.50 2.1828e-17 
8701.00 3.9626e-17 
8702.50 3.9915e-17 
8704.00 3.2941e-17 
8705.50 3.8735e-17 
8707.00 3.6366e-17 
8708.50 3.6153e-17 
8710.00 3.6015e-17 
8711.50 2.3883e-17 
8713.00 2.3547e-17 
8714.50 2.3097e-17 
8716.00 2.3152e-17 
8717.50 3.1464e-17 
8719.00 3.1143e-17 
8720.50 3.1495e-17 
8722.00 3.2559e-17 
8723.50 3.8900e-17 
8725.00 3.8338e-17 
8726.50 3.1621e-17 
8728.00 2.0547e-17 
8729.50 2.4737e-17 
8731.00 2.9359e-17 
8732.50 2.8816e-17 
8734.00 2.3984e-17 
8735.50 3.9099e-17 
8737.00 3.2836e-17 
8738.50 3.2927e-17 
8740.00 3.9669e-17 
8741.50 3.4947e-17 
8743.00 3.3985e-17 
8744.50 3.5145e-17 
8746.00 3.9040e-17 
8747.50 3.5398e-17 
8749.00 3.4916e-17 
8750.50 3.1933e-17 
8752.00 2.4406e-17 
8753.50 2.3357e-17 
8755.00 2.8786e-17 
8756.50 2.6943e-17 
8758.00 8.3898e-18 
8759.50 5.5709e-17 
8761.00 6.6541e-17 
8762.50 7.4060e-17 
8764.00 8.6656e-17 
8765.50 1.9201e-17 
8767.00 4.6374e-17 
8768.50 7.8655e-17 
8770.00 5.9043e-17 
8771.50 7.2259e-17 
8773.00 5.8384e-17 
8774.50 3.7223e-17 
8776.00 1.9435e-17 
8777.50 5.0107e-17 
8779.00 6.6461e-17 
8780.50 7.1835e-17 
8782.00 2.0779e-17 
8783.50 3.0142e-17 
8785.00 2.9884e-17 
8786.50 2.4966e-17 
8788.00 4.2677e-17 
8789.50 3.7890e-17 
8791.00 4.5914e-17 
8792.50 6.5418e-17 
8794.00 3.6752e-17 
8795.50 3.1495e-17 
8797.00 2.7559e-17 
8798.50 2.4825e-17 
8800.00 2.4096e-17 
8801.50 2.8014e-17 
8803.00 3.2237e-17 
8804.50 3.6930e-17 
8806.00 3.4586e-17 
8807.50 3.1296e-17 
8809.00 3.0244e-17 
8810.50 3.7062e-17 
8812.00 3.8787e-17 
8813.50 3.8868e-17 
8815.00 3.7322e-17 
8816.50 2.8565e-17 
8818.00 3.0125e-17 
8819.50 2.8979e-17 
8821.00 2.6800e-17 
8822.50 2.7541e-17 
8824.00 2.8555e-17 
8825.50 3.3988e-17 
8827.00 4.3107e-17 
8828.50 1.0765e-16 
8830.00 8.1817e-17 
8831.50 5.9229e-17 
8833.00 3.8586e-17 
8834.50 1.5406e-17 
8836.00 3.5293e-17 
8837.50 5.5146e-17 
8839.00 6.9769e-17 
8840.50 4.2957e-17 
8842.00 3.0302e-17 
8843.50 2.5140e-17 
8845.00 4.2559e-17 
8846.50 3.9569e-17 
8848.00 2.8217e-17 
8849.50 1.6669e-17 
8851.00 4.3400e-17 
8852.50 5.2626e-17 
8854.00 4.7463e-17 
8855.50 3.1667e-17 
8857.00 2.2167e-17 
8858.50 2.9777e-17 
8860.00 3.7533e-17 
8861.50 4.6447e-17 
8863.00 3.4971e-17 
8864.50 3.8770e-17 
8866.00 3.9447e-17 
8867.50 2.6736e-17 
8869.00 7.8891e-17 
8870.50 4.5158e-17 
8872.00 1.3319e-18 
8873.50 4.0723e-17 
8875.00 3.5409e-17 
8876.50 3.1977e-17 
8878.00 2.9294e-17 
8879.50 2.6368e-17 
8881.00 2.1461e-17 
8882.50 2.6501e-17 
8884.00 4.4224e-17 
8885.50 5.7520e-17 
8887.00 9.8761e-17 
8888.50 1.0057e-16 
8890.00 -9.8026e-18
8891.50 2.2759e-17 
8893.00 2.7763e-17 
8894.50 2.8032e-17 
8896.00 3.9547e-17 
8897.50 3.3124e-17 
8899.00 2.4912e-17 
8900.50 1.5309e-17 
8902.00 3.2447e-17 
8903.50 7.0138e-17 
8905.00 7.5859e-17 
8906.50 3.7608e-17 
8908.00 3.0816e-17 
8909.50 3.4729e-17 
8911.00 3.8762e-17 
8912.50 3.9866e-17 
8914.00 3.1178e-17 
8915.50 3.8278e-17 
8917.00 4.8825e-17 
8918.50 3.5503e-17 
8920.00 1.6249e-16 
8921.50 1.5740e-16 
8923.00 3.9378e-17 
8924.50 1.4090e-18 
8926.00 1.4964e-17 
8927.50 2.5148e-17 
8929.00 2.5177e-17 
8930.50 2.5514e-17 
8932.00 3.2169e-17 
8933.50 3.8269e-17 
8935.00 3.0242e-17 
8936.50 3.1740e-17 
8938.00 3.0775e-17 
8939.50 2.8212e-17 
8941.00 3.5114e-17 
8942.50 4.3642e-17 
8944.00 4.8000e-17 
8945.50 4.5654e-17 
8947.00 1.3182e-17 
8948.50 2.1448e-17 
8950.00 3.1874e-17 
8951.50 1.6609e-17 
8953.00 4.2841e-17 
8954.50 3.6879e-17 
8956.00 1.3886e-17 
8957.50 6.8719e-17 
8959.00 9.7613e-17 
8960.50 9.1745e-17 
8962.00 2.5489e-17 
8963.50 -7.9431e-18
8965.00 2.3424e-17 
8966.50 5.4197e-17 
8968.00 2.2027e-17 
8969.50 2.8919e-17 
8971.00 2.8390e-17 
8972.50 2.3687e-17 
8974.00 3.8351e-17 
8975.50 2.9075e-17 
8977.00 2.5745e-17 
8978.50 3.3314e-17 
8980.00 2.8310e-17 
8981.50 2.8667e-17 
8983.00 2.9715e-17 
8984.50 2.8208e-17 
8986.00 2.9050e-17 
8987.50 4.2463e-17 
8989.00 6.7095e-17 
8990.50 3.2592e-17 
8992.00 4.3337e-17 
8993.50 5.0104e-17 
8995.00 4.3720e-17 
8996.50 5.1234e-17 
8998.00 4.2255e-17 
8999.50 3.1305e-17 
9001.00 6.4098e-17 
9002.50 5.6246e-17 
9004.00 5.3792e-17 
9005.50 5.6644e-17 
9007.00 -1.0611e-17
9008.50 1.8324e-17 
9010.00 4.6110e-17 
9011.50 3.0302e-17 
9013.00 3.0481e-17 
9014.50 2.9272e-17 
9016.00 2.7256e-17 
9017.50 3.9201e-17 
9019.00 3.5749e-17 
9020.50 3.5851e-17 
9022.00 4.3351e-17 
9023.50 4.5491e-17 
9025.00 3.1872e-17 
9026.50 1.6431e-17 
9028.00 2.6486e-17 
9029.50 4.0658e-17 
9031.00 4.5407e-17 
9032.50 4.1734e-17 
9034.00 2.4495e-17 
9035.50 2.5896e-17 
9037.00 3.0620e-17 
9038.50 4.3285e-17 
9040.00 4.0543e-17 
9041.50 3.0648e-17 
9043.00 1.5223e-17 
9044.50 3.6299e-17 
9046.00 3.0947e-17 
9047.50 3.0688e-17 
9049.00 4.5314e-17 
9050.50 6.0091e-17 
9052.00 4.4238e-17 
9053.50 1.7623e-17 
9055.00 5.8191e-18 
9056.50 2.3171e-17 
9058.00 3.3626e-17 
9059.50 3.6305e-17 
9061.00 2.5229e-17 
9062.50 2.9740e-17 
9064.00 3.6307e-17 
9065.50 3.1473e-17 
9067.00 3.2792e-17 
9068.50 3.5185e-17 
9070.00 3.9444e-17 
9071.50 3.6695e-17 
9073.00 3.8311e-17 
9074.50 3.8727e-17 
9076.00 2.8551e-17 
9077.50 3.6271e-17 
9079.00 3.7136e-17 
9080.50 3.3046e-17 
9082.00 4.2672e-17 
9083.50 4.2130e-17 
9085.00 3.9295e-17 
9086.50 2.8766e-17 
9088.00 3.0089e-17 
9089.50 3.4514e-17 
9091.00 4.1602e-17 
9092.50 2.9307e-17 
9094.00 4.3633e-17 
9095.50 5.1380e-17 
9097.00 3.4794e-17 
9098.50 2.7440e-17 
9100.00 2.6701e-17 
9101.50 2.8968e-17 
9103.00 4.5229e-17 
9104.50 6.5559e-17 
9106.00 7.2363e-17 
9107.50 4.0464e-17 
9109.00 3.3262e-17 
9110.50 3.1685e-17 
9112.00 3.2221e-17 
9113.50 3.5499e-17 
9115.00 3.4612e-17 
9116.50 3.6784e-17 
9118.00 4.8351e-17 
9119.50 4.6407e-17 
9121.00 4.3936e-17 
9122.50 4.0916e-17 
9124.00 4.5149e-17 
9125.50 3.7615e-17 
9127.00 3.2326e-17 
9128.50 3.1888e-17 
9130.00 1.6970e-17 
9131.50 2.6580e-17 
9133.00 4.7745e-17 
9134.50 2.3962e-17 
9136.00 2.0676e-17 
9137.50 2.1728e-17 
9139.00 3.5884e-17 
9140.50 3.1193e-17 
9142.00 3.2039e-17 
9143.50 3.5637e-17 
9145.00 3.9572e-17 
9146.50 2.7640e-17 
9148.00 2.3155e-17 
9149.50 4.6312e-17 
9151.00 2.6589e-17 
9152.50 2.9766e-17 
9154.00 4.6743e-17 
9155.50 4.5159e-17 
9157.00 2.9116e-17 
9158.50 2.0449e-17 
9160.00 4.9392e-17 
9161.50 3.0156e-17 
9163.00 2.7671e-17 
9164.50 3.6899e-17 
9166.00 1.6866e-17 
9167.50 2.0922e-17 
9169.00 2.8828e-17 
9170.50 4.9251e-17 
9172.00 2.9218e-17 
9173.50 2.5455e-17 
9175.00 3.7603e-17 
9176.50 3.6342e-17 
9178.00 3.4822e-17 
9179.50 3.3995e-17 
9181.00 4.3963e-17 
9182.50 4.6378e-17 
9184.00 4.2409e-17 
9185.50 2.6207e-17 
9187.00 2.5711e-17 
9188.50 2.4535e-17 
9190.00 0
9191.50 0
9193.00 0
9194.50 0
9196.00 0
9197.50 0
9199.00 0
9200.50 0
9202.00 0
9203.50 0
9205.00 0
9206.50 0
9208.00 0
9209.50 0
9211.00 0
9212.50 0
9214.00 0
9215.50 0
9217.00 0
9218.50 0
9220.00 0
9221.50 0
9223.00 0
9224.50 0
9226.00 0
9227.50 0
9229.00 0
9230.50 0
9232.00 0
9233.50 0
9235.00 0
9236.50 0
9238.00 0
9239.50 0
9241.00 0
9242.50 0
9244.00 0
9245.50 0
9247.00 0
9248.50 0
9250.00 0
9251.50 0
9253.00 0
9254.50 0
9256.00 0
9257.50 0
9259.00 0
9260.50 0
9262.00 0
9263.50 0
9265.00 0
9266.50 0
9268.00 0
9269.50 0
9271.00 0
9272.50 0
9274.00 0
9275.50 0
9277.00 0
9278.50 0
9280.00 0
9281.50 0
9283.00 0
9284.50 0
9286.00 0
9287.50 0
9289.00 0
9290.50 0
9292.00 0
9293.50 0
9295.00 0
9296.50 0
9298.00 0
9299.50 0
9301.00 0
9302.50 0
9304.00 0
9305.50 0
9307.00 0
9308.50 0
9310.00 0
9311.50 0
9313.00 0
9314.50 0
9316.00 0
9317.50 0
9319.00 0
9320.50 0
9322.00 0
9323.50 0
9325.00 0
9326.50 0
9328.00 0
9329.50 0
9331.00 0
9332.50 0
9334.00 0
9335.50 0
9337.00 0
9338.50 0
9340.00 0
9341.50 0
9343.00 0
9344.50 0
9346.00 0
9347.50 0
9349.00 0
9350.50 0
9352.00 0
9353.50 0
9355.00 0
9356.50 0
9358.00 0
9359.50 0
9361.00 0
9362.50 0
9364.00 0
9365.50 0
9367.00 0
9368.50 0
9370.00 0
9371.50 0
9373.00 0
9374.50 0
9376.00 0
9377.50 0
9379.00 0
9380.50 0
9382.00 0
9383.50 0
9385.00 0
9386.50 0
9388.00 0
9389.50 0
9391.00 0
9392.50 0
9394.00 0
9395.50 0
9397.00 0
9398.50 0
9400.00 0
9401.50 0
9403.00 0
9404.50 0
9406.00 0
9407.50 0
9409.00 0
9410.50 0
9412.00 0
9413.50 0
9415.00 0
9416.50 0
9418.00 0
9419.50 0
9421.00 0
9422.50 0
9424.00 0
9425.50 0
9427.00 0
9428.50 0
9430.00 0
9431.50 0
9433.00 0
9434.50 0
9436.00 0
9437.50 0
9439.00 0
9440.50 0
9442.00 0
9443.50 0
9445.00 0
9446.50 0
9448.00 0
9449.50 0
9451.00 0
9452.50 0
9454.00 0
9455.50 0
9457.00 0
9458.50 0
9460.00 0
9461.50 0
9463.00 0
9464.50 0
9466.00 0
9467.50 0
9469.00 0
9470.50 0
9472.00 0
9473.50 0
9475.00 0
9476.50 0
9478.00 0
9479.50 0
9481.00 0
9482.50 0
9484.00 0
9485.50 0
9487.00 0
9488.50 0
9490.00 0
9491.50 0
9493.00 0
9494.50 0
9496.00 0
9497.50 0
9499.00 0
9500.50 0
9502.00 0
9503.50 0
9505.00 0
9506.50 0
9508.00 0
9509.50 0
9511.00 0
9512.50 0
9514.00 0
9515.50 0
9517.00 0
9518.50 0
9520.00 0
9521.50 0
9523.00 0
9524.50 0
9526.00 0
9527.50 0
9529.00 0
9530.50 0
9532.00 0
9533.50 0
9535.00 0
9536.50 0
9538.00 0
9539.50 0
9541.00 0
9542.50 0
9544.00 0
9545.50 0
9547.00 0
9548.50 0
9550.00 0
9551.50 0
9553.00 0
9554.50 0
9556.00 0
9557.50 0
9559.00 0
9560.50 0
9562.00 0
9563.50 0
9565.00 0
9566.50 0
9568.00 0
9569.50 0
9571.00 0
9572.50 0
9574.00 0
9575.50 0
9577.00 0
9578.50 0
9580.00 0
9581.50 0
9583.00 0
9584.50 0
9586.00 0
9587.50 0
9589.00 0
9590.50 0
9592.00 0
9593.50 0
9595.00 0
9596.50 0
9598.00 0
9599.50 0
