Wavelength (Angstroms) Flux (erg/s/cm2/A)
# start
3500.00 1.7240e-16 
3501.50 1.5329e-16 
3503.00 1.6249e-16 
3504.50 1.6043e-16 
3506.00 1.7204e-16 
3507.50 1.5717e-16 
3509.00 1.5679e-16 
3510.50 1.6300e-16 
3512.00 1.6469e-16 
3513.50 1.7229e-16 
3515.00 1.5340e-16 
3516.50 1.7204e-16 
3518.00 1.5390e-16 
3519.50 1.7127e-16 
3521.00 1.5616e-16 
3522.50 1.7202e-16 
3524.00 1.5274e-16 
3525.50 1.9262e-16 
3527.00 1.6307e-16 
3528.50 1.7570e-16 
3530.00 1.6014e-16 
3531.50 1.6683e-16 
3533.00 1.6181e-16 
3534.50 1.5122e-16 
3536.00 1.6862e-16 
3537.50 1.6571e-16 
3539.00 1.7970e-16 
3540.50 1.6497e-16 
3542.00 1.8148e-16 
3543.50 1.5959e-16 
3545.00 1.9233e-16 
3546.50 1.5229e-16 
3548.00 1.7284e-16 
3549.50 1.6482e-16 
3551.00 1.6752e-16 
3552.50 1.7971e-16 
3554.00 1.7488e-16 
3555.50 1.6570e-16 
3557.00 1.7305e-16 
3558.50 1.6917e-16 
3560.00 1.5945e-16 
3561.50 1.7701e-16 
3563.00 1.6213e-16 
3564.50 1.7951e-16 
3566.00 1.6231e-16 
3567.50 1.9640e-16 
3569.00 1.5749e-16 
3570.50 1.9385e-16 
3572.00 1.5908e-16 
3573.50 1.6640e-16 
3575.00 1.6480e-16 
3576.50 1.7177e-16 
3578.00 1.5859e-16 
3579.50 1.7614e-16 
3581.00 1.8268e-16 
3582.50 1.7254e-16 
3584.00 1.7736e-16 
3585.50 1.5467e-16 
3587.00 1.8357e-16 
3588.50 1.6499e-16 
3590.00 1.7986e-16 
3591.50 1.6595e-16 
3593.00 1.7226e-16 
3594.50 1.7018e-16 
3596.00 1.7496e-16 
3597.50 1.6232e-16 
3599.00 1.7082e-16 
3600.50 1.7013e-16 
3602.00 1.6539e-16 
3603.50 1.8503e-16 
3605.00 1.6708e-16 
3606.50 1.8223e-16 
3608.00 1.6714e-16 
3609.50 1.8104e-16 
3611.00 1.6379e-16 
3612.50 1.8783e-16 
3614.00 1.6456e-16 
3615.50 1.7711e-16 
3617.00 1.7515e-16 
3618.50 1.8439e-16 
3620.00 1.7890e-16 
3621.50 1.6430e-16 
3623.00 1.7858e-16 
3624.50 1.7073e-16 
3626.00 1.8383e-16 
3627.50 1.7858e-16 
3629.00 1.8527e-16 
3630.50 1.5631e-16 
3632.00 1.8737e-16 
3633.50 1.6507e-16 
3635.00 1.8733e-16 
3636.50 1.6451e-16 
3638.00 1.7865e-16 
3639.50 1.6374e-16 
3641.00 1.8526e-16 
3642.50 1.7995e-16 
3644.00 1.8054e-16 
3645.50 1.7400e-16 
3647.00 1.7134e-16 
3648.50 1.8711e-16 
3650.00 1.6798e-16 
3651.50 1.8274e-16 
3653.00 1.6041e-16 
3654.50 1.9293e-16 
3656.00 1.6564e-16 
3657.50 1.8076e-16 
3659.00 1.6913e-16 
3660.50 1.7312e-16 
3662.00 1.6965e-16 
3663.50 1.7372e-16 
3665.00 1.6954e-16 
3666.50 1.6538e-16 
3668.00 1.7472e-16 
3669.50 1.6418e-16 
3671.00 1.7788e-16 
3672.50 1.5897e-16 
3674.00 1.7433e-16 
3675.50 1.6708e-16 
3677.00 1.7578e-16 
3678.50 1.6160e-16 
3680.00 1.8119e-16 
3681.50 1.6792e-16 
3683.00 1.7796e-16 
3684.50 1.7723e-16 
3686.00 1.6522e-16 
3687.50 1.7824e-16 
3689.00 1.7596e-16 
3690.50 1.7912e-16 
3692.00 1.6747e-16 
3693.50 1.7839e-16 
3695.00 1.6359e-16 
3696.50 1.7648e-16 
3698.00 1.6374e-16 
3699.50 1.7914e-16 
3701.00 1.6977e-16 
3702.50 1.7164e-16 
3704.00 1.6277e-16 
3705.50 1.7013e-16 
3707.00 1.7483e-16 
3708.50 1.6030e-16 
3710.00 1.7792e-16 
3711.50 1.7017e-16 
3713.00 1.7157e-16 
3714.50 1.6593e-16 
3716.00 1.7600e-16 
3717.50 1.6349e-16 
3719.00 1.7200e-16 
3720.50 1.6888e-16 
3722.00 1.7456e-16 
3723.50 1.6871e-16 
3725.00 1.6643e-16 
3726.50 1.7156e-16 
3728.00 1.6898e-16 
3729.50 1.7172e-16 
3731.00 1.6236e-16 
3732.50 1.7277e-16 
3734.00 1.6163e-16 
3735.50 1.7223e-16 
3737.00 1.6438e-16 
3738.50 1.7948e-16 
3740.00 1.7024e-16 
3741.50 1.7437e-16 
3743.00 1.7157e-16 
3744.50 1.6754e-16 
3746.00 1.7008e-16 
3747.50 1.7143e-16 
3749.00 1.6978e-16 
3750.50 1.6866e-16 
3752.00 1.7451e-16 
3753.50 1.6987e-16 
3755.00 1.7750e-16 
3756.50 1.5592e-16 
3758.00 1.7646e-16 
3759.50 1.6510e-16 
3761.00 1.7196e-16 
3762.50 1.6575e-16 
3764.00 1.7539e-16 
3765.50 1.7035e-16 
3767.00 1.7134e-16 
3768.50 1.7212e-16 
3770.00 1.7630e-16 
3771.50 1.7090e-16 
3773.00 1.7027e-16 
3774.50 1.6883e-16 
3776.00 1.5815e-16 
3777.50 1.7523e-16 
3779.00 1.5592e-16 
3780.50 1.7679e-16 
3782.00 1.6840e-16 
3783.50 1.7603e-16 
3785.00 1.7233e-16 
3786.50 1.7538e-16 
3788.00 1.7779e-16 
3789.50 1.7289e-16 
3791.00 1.7306e-16 
3792.50 1.7000e-16 
3794.00 1.7468e-16 
3795.50 1.6999e-16 
3797.00 1.7510e-16 
3798.50 1.7099e-16 
3800.00 1.7793e-16 
3801.50 1.6767e-16 
3803.00 1.7310e-16 
3804.50 1.7304e-16 
3806.00 1.6960e-16 
3807.50 1.7145e-16 
3809.00 1.7195e-16 
3810.50 1.6833e-16 
3812.00 1.7261e-16 
3813.50 1.8035e-16 
3815.00 1.6913e-16 
3816.50 1.7837e-16 
3818.00 1.6484e-16 
3819.50 1.7987e-16 
3821.00 1.7150e-16 
3822.50 1.8594e-16 
3824.00 1.7331e-16 
3825.50 1.8405e-16 
3827.00 1.7729e-16 
3828.50 1.8092e-16 
3830.00 1.7560e-16 
3831.50 1.7704e-16 
3833.00 1.8416e-16 
3834.50 1.7826e-16 
3836.00 1.8787e-16 
3837.50 1.8507e-16 
3839.00 1.8892e-16 
3840.50 1.7831e-16 
3842.00 1.8838e-16 
3843.50 1.8367e-16 
3845.00 1.8633e-16 
3846.50 1.8730e-16 
3848.00 1.8785e-16 
3849.50 1.8141e-16 
3851.00 1.9206e-16 
3852.50 1.8798e-16 
3854.00 1.8331e-16 
3855.50 1.9451e-16 
3857.00 1.8988e-16 
3858.50 1.9261e-16 
3860.00 1.8555e-16 
3861.50 1.9689e-16 
3863.00 1.9286e-16 
3864.50 1.9079e-16 
3866.00 1.8983e-16 
3867.50 1.8839e-16 
3869.00 1.9107e-16 
3870.50 1.8200e-16 
3872.00 1.9628e-16 
3873.50 1.8156e-16 
3875.00 1.9493e-16 
3876.50 1.8644e-16 
3878.00 1.9101e-16 
3879.50 1.7130e-16 
3881.00 1.8163e-16 
3882.50 1.8930e-16 
3884.00 1.9579e-16 
3885.50 1.8929e-16 
3887.00 1.9503e-16 
3888.50 1.9473e-16 
3890.00 1.9446e-16 
3891.50 1.9421e-16 
3893.00 2.0063e-16 
3894.50 2.2383e-16 
3896.00 1.9560e-16 
3897.50 2.0350e-16 
3899.00 1.8889e-16 
3900.50 2.0163e-16 
3902.00 1.9694e-16 
3903.50 2.0050e-16 
3905.00 2.0015e-16 
3906.50 1.9485e-16 
3908.00 2.0862e-16 
3909.50 1.9581e-16 
3911.00 2.0512e-16 
3912.50 2.0379e-16 
3914.00 2.1229e-16 
3915.50 2.0497e-16 
3917.00 2.0727e-16 
3918.50 2.0679e-16 
3920.00 2.0317e-16 
3921.50 2.0564e-16 
3923.00 2.1361e-16 
3924.50 2.1071e-16 
3926.00 2.1355e-16 
3927.50 2.2311e-16 
3929.00 2.0807e-16 
3930.50 2.2373e-16 
3932.00 2.1075e-16 
3933.50 2.2370e-16 
3935.00 2.0913e-16 
3936.50 2.2150e-16 
3938.00 2.2648e-16 
3939.50 2.2696e-16 
3941.00 2.2469e-16 
3942.50 2.2487e-16 
3944.00 2.3395e-16 
3945.50 2.2675e-16 
3947.00 2.3233e-16 
3948.50 2.2617e-16 
3950.00 2.3767e-16 
3951.50 2.2417e-16 
3953.00 2.2959e-16 
3954.50 2.2163e-16 
3956.00 2.2454e-16 
3957.50 2.2320e-16 
3959.00 2.2757e-16 
3960.50 2.2545e-16 
3962.00 2.2549e-16 
3963.50 2.2542e-16 
3965.00 2.2349e-16 
3966.50 2.3327e-16 
3968.00 2.1689e-16 
3969.50 2.2293e-16 
3971.00 2.2095e-16 
3972.50 2.2788e-16 
3974.00 2.2328e-16 
3975.50 2.3034e-16 
3977.00 2.2118e-16 
3978.50 2.2108e-16 
3980.00 2.2809e-16 
3981.50 2.1674e-16 
3983.00 2.2047e-16 
3984.50 2.0928e-16 
3986.00 2.1935e-16 
3987.50 2.0366e-16 
3989.00 2.1372e-16 
3990.50 2.0002e-16 
3992.00 2.0705e-16 
3993.50 1.9908e-16 
3995.00 1.9933e-16 
3996.50 2.0134e-16 
3998.00 1.9372e-16 
3999.50 1.9806e-16 
4001.00 1.9179e-16 
4002.50 1.9616e-16 
4004.00 1.8495e-16 
4005.50 1.9477e-16 
4007.00 1.8668e-16 
4008.50 1.8859e-16 
4010.00 1.8886e-16 
4011.50 1.8260e-16 
4013.00 1.8857e-16 
4014.50 1.8567e-16 
4016.00 1.8415e-16 
4017.50 1.8265e-16 
4019.00 1.7979e-16 
4020.50 1.7496e-16 
4022.00 1.8178e-16 
4023.50 1.7706e-16 
4025.00 1.8144e-16 
4026.50 1.7573e-16 
4028.00 1.7968e-16 
4029.50 1.7231e-16 
4031.00 1.7476e-16 
4032.50 1.7718e-16 
4034.00 1.6825e-16 
4035.50 1.7602e-16 
4037.00 1.6320e-16 
4038.50 1.7074e-16 
4040.00 1.6552e-16 
4041.50 1.7214e-16 
4043.00 1.6395e-16 
4044.50 1.7349e-16 
4046.00 1.6606e-16 
4047.50 1.6752e-16 
4049.00 1.7133e-16 
4050.50 1.6755e-16 
4052.00 1.7040e-16 
4053.50 1.6275e-16 
4055.00 1.6712e-16 
4056.50 1.6032e-16 
4058.00 1.7291e-16 
4059.50 1.6339e-16 
4061.00 1.6807e-16 
4062.50 1.5947e-16 
4064.00 1.6884e-16 
4065.50 1.6575e-16 
4067.00 1.6300e-16 
4068.50 1.6626e-16 
4070.00 1.6081e-16 
4071.50 1.7264e-16 
4073.00 1.5657e-16 
4074.50 1.6297e-16 
4076.00 1.6247e-16 
4077.50 1.6241e-16 
4079.00 1.6139e-16 
4080.50 1.6446e-16 
4082.00 1.5997e-16 
4083.50 1.6122e-16 
4085.00 1.6264e-16 
4086.50 1.5674e-16 
4088.00 1.5905e-16 
4089.50 1.5347e-16 
4091.00 1.5964e-16 
4092.50 1.5391e-16 
4094.00 1.6221e-16 
4095.50 1.5646e-16 
4097.00 1.5902e-16 
4098.50 1.6232e-16 
4100.00 1.5911e-16 
4101.50 1.6160e-16 
4103.00 1.5870e-16 
4104.50 1.6036e-16 
4106.00 1.6079e-16 
4107.50 1.5947e-16 
4109.00 1.5307e-16 
4110.50 1.5779e-16 
4112.00 1.5531e-16 
4113.50 1.6136e-16 
4115.00 1.5586e-16 
4116.50 1.6104e-16 
4118.00 1.5551e-16 
4119.50 1.6283e-16 
4121.00 1.6218e-16 
4122.50 1.5433e-16 
4124.00 1.6156e-16 
4125.50 1.5412e-16 
4127.00 1.5986e-16 
4128.50 1.5554e-16 
4130.00 1.6401e-16 
4131.50 1.6001e-16 
4133.00 1.5638e-16 
4134.50 1.5364e-16 
4136.00 1.5700e-16 
4137.50 1.5669e-16 
4139.00 1.6070e-16 
4140.50 1.5829e-16 
4142.00 1.5807e-16 
4143.50 1.5766e-16 
4145.00 1.5756e-16 
4146.50 1.6415e-16 
4148.00 1.5329e-16 
4149.50 1.5964e-16 
4151.00 1.5547e-16 
4152.50 1.5817e-16 
4154.00 1.5980e-16 
4155.50 1.6286e-16 
4157.00 1.5766e-16 
4158.50 1.5789e-16 
4160.00 1.5426e-16 
4161.50 1.5981e-16 
4163.00 1.6164e-16 
4164.50 1.5270e-16 
4166.00 1.6122e-16 
4167.50 1.5316e-16 
4169.00 1.5911e-16 
4170.50 1.5538e-16 
4172.00 1.5883e-16 
4173.50 1.5686e-16 
4175.00 1.5486e-16 
4176.50 1.5341e-16 
4178.00 1.5194e-16 
4179.50 1.5977e-16 
4181.00 1.5269e-16 
4182.50 1.5830e-16 
4184.00 1.4871e-16 
4185.50 1.5441e-16 
4187.00 1.5012e-16 
4188.50 1.5322e-16 
4190.00 1.5727e-16 
4191.50 1.4951e-16 
4193.00 1.5424e-16 
4194.50 1.5119e-16 
4196.00 1.5336e-16 
4197.50 1.5393e-16 
4199.00 1.5470e-16 
4200.50 1.5032e-16 
4202.00 1.5605e-16 
4203.50 1.4973e-16 
4205.00 1.5194e-16 
4206.50 1.4506e-16 
4208.00 1.4145e-16 
4209.50 1.5044e-16 
4211.00 1.5141e-16 
4212.50 1.5619e-16 
4214.00 1.4734e-16 
4215.50 1.5006e-16 
4217.00 1.4737e-16 
4218.50 1.4913e-16 
4220.00 1.4822e-16 
4221.50 1.5160e-16 
4223.00 1.5028e-16 
4224.50 1.4898e-16 
4226.00 1.5219e-16 
4227.50 1.5145e-16 
4229.00 1.5276e-16 
4230.50 1.5070e-16 
4232.00 1.6080e-16 
4233.50 1.5092e-16 
4235.00 1.5659e-16 
4236.50 1.4757e-16 
4238.00 1.5857e-16 
4239.50 1.5593e-16 
4241.00 1.5378e-16 
4242.50 1.5433e-16 
4244.00 1.5495e-16 
4245.50 1.5575e-16 
4247.00 1.5002e-16 
4248.50 1.5783e-16 
4250.00 1.5165e-16 
4251.50 1.5687e-16 
4253.00 1.5034e-16 
4254.50 1.5744e-16 
4256.00 1.5337e-16 
4257.50 1.5552e-16 
4259.00 1.5572e-16 
4260.50 1.5191e-16 
4262.00 1.5646e-16 
4263.50 1.5339e-16 
4265.00 1.6057e-16 
4266.50 1.5269e-16 
4268.00 1.6094e-16 
4269.50 1.4924e-16 
4271.00 1.5421e-16 
4272.50 1.5092e-16 
4274.00 1.5478e-16 
4275.50 1.5236e-16 
4277.00 1.5207e-16 
4278.50 1.5702e-16 
4280.00 1.5556e-16 
4281.50 1.5738e-16 
4283.00 1.5012e-16 
4284.50 1.6083e-16 
4286.00 1.5678e-16 
4287.50 1.6061e-16 
4289.00 1.6036e-16 
4290.50 1.2299e-16 
4292.00 1.5326e-16 
4293.50 1.5426e-16 
4295.00 1.5729e-16 
4296.50 1.5416e-16 
4298.00 1.5938e-16 
4299.50 1.5175e-16 
4301.00 1.5958e-16 
4302.50 1.5343e-16 
4304.00 1.6205e-16 
4305.50 1.5466e-16 
4307.00 1.5826e-16 
4308.50 1.5811e-16 
4310.00 1.5896e-16 
4311.50 1.5800e-16 
4313.00 1.5555e-16 
4314.50 1.5648e-16 
4316.00 1.5746e-16 
4317.50 1.5666e-16 
4319.00 1.4874e-16 
4320.50 1.5747e-16 
4322.00 1.5300e-16 
4323.50 1.5665e-16 
4325.00 1.5049e-16 
4326.50 1.5324e-16 
4328.00 1.5337e-16 
4329.50 1.5032e-16 
4331.00 1.5422e-16 
4332.50 1.4940e-16 
4334.00 1.5832e-16 
4335.50 1.5273e-16 
4337.00 1.5956e-16 
4338.50 1.5352e-16 
4340.00 1.5729e-16 
4341.50 1.5851e-16 
4343.00 1.5242e-16 
4344.50 1.5675e-16 
4346.00 1.5409e-16 
4347.50 1.5712e-16 
4349.00 1.5111e-16 
4350.50 1.5820e-16 
4352.00 1.5158e-16 
4353.50 1.5581e-16 
4355.00 1.4838e-16 
4356.50 1.5496e-16 
4358.00 1.5116e-16 
4359.50 1.5388e-16 
4361.00 1.5014e-16 
4362.50 1.4720e-16 
4364.00 1.5182e-16 
4365.50 1.4895e-16 
4367.00 1.5331e-16 
4368.50 1.4620e-16 
4370.00 1.5136e-16 
4371.50 1.5072e-16 
4373.00 1.4783e-16 
4374.50 1.5071e-16 
4376.00 1.4973e-16 
4377.50 1.5188e-16 
4379.00 1.4836e-16 
4380.50 1.5157e-16 
4382.00 1.4495e-16 
4383.50 1.5415e-16 
4385.00 1.4677e-16 
4386.50 1.5238e-16 
4388.00 1.4735e-16 
4389.50 1.4781e-16 
4391.00 1.4751e-16 
4392.50 1.4468e-16 
4394.00 1.4684e-16 
4395.50 1.4581e-16 
4397.00 1.4492e-16 
4398.50 1.4469e-16 
4400.00 1.4794e-16 
4401.50 1.4387e-16 
4403.00 1.4583e-16 
4404.50 1.4668e-16 
4406.00 1.4884e-16 
4407.50 1.4543e-16 
4409.00 1.4398e-16 
4410.50 1.4114e-16 
4412.00 1.4092e-16 
4413.50 1.3988e-16 
4415.00 1.4514e-16 
4416.50 1.4018e-16 
4418.00 1.4561e-16 
4419.50 1.3732e-16 
4421.00 1.4300e-16 
4422.50 1.3916e-16 
4424.00 1.4314e-16 
4425.50 1.4373e-16 
4427.00 1.4077e-16 
4428.50 1.4233e-16 
4430.00 1.4244e-16 
4431.50 1.4537e-16 
4433.00 1.3287e-16 
4434.50 1.4164e-16 
4436.00 1.4078e-16 
4437.50 1.4136e-16 
4439.00 1.3664e-16 
4440.50 1.3915e-16 
4442.00 1.3920e-16 
4443.50 1.4197e-16 
4445.00 1.4178e-16 
4446.50 1.3759e-16 
4448.00 1.4350e-16 
4449.50 1.3713e-16 
4451.00 1.4251e-16 
4452.50 1.4026e-16 
4454.00 1.4344e-16 
4455.50 1.4107e-16 
4457.00 1.4278e-16 
4458.50 1.4063e-16 
4460.00 1.4400e-16 
4461.50 1.4365e-16 
4463.00 1.4127e-16 
4464.50 1.4289e-16 
4466.00 1.3896e-16 
4467.50 1.4480e-16 
4469.00 1.4343e-16 
4470.50 1.4366e-16 
4472.00 1.4036e-16 
4473.50 1.4148e-16 
4475.00 1.3843e-16 
4476.50 1.4036e-16 
4478.00 1.3970e-16 
4479.50 1.3769e-16 
4481.00 1.4716e-16 
4482.50 1.3542e-16 
4484.00 1.4496e-16 
4485.50 1.3553e-16 
4487.00 1.4087e-16 
4488.50 1.3848e-16 
4490.00 1.3852e-16 
4491.50 1.3827e-16 
4493.00 1.3963e-16 
4494.50 1.4070e-16 
4496.00 1.3727e-16 
4497.50 1.3811e-16 
4499.00 1.3653e-16 
4500.50 1.4140e-16 
4502.00 1.3528e-16 
4503.50 1.3650e-16 
4505.00 1.3790e-16 
4506.50 1.3691e-16 
4508.00 1.3979e-16 
4509.50 1.3353e-16 
4511.00 1.3806e-16 
4512.50 1.3824e-16 
4514.00 1.3979e-16 
4515.50 1.3487e-16 
4517.00 1.4100e-16 
4518.50 1.3778e-16 
4520.00 1.3474e-16 
4521.50 1.3784e-16 
4523.00 1.3493e-16 
4524.50 1.3760e-16 
4526.00 1.3261e-16 
4527.50 1.3694e-16 
4529.00 1.3417e-16 
4530.50 1.3681e-16 
4532.00 1.3473e-16 
4533.50 1.3864e-16 
4535.00 1.3209e-16 
4536.50 1.3609e-16 
4538.00 1.3489e-16 
4539.50 1.3319e-16 
4541.00 1.3505e-16 
4542.50 1.3516e-16 
4544.00 1.3660e-16 
4545.50 1.3466e-16 
4547.00 1.3829e-16 
4548.50 1.3610e-16 
4550.00 1.3498e-16 
4551.50 1.3606e-16 
4553.00 1.3771e-16 
4554.50 1.3254e-16 
4556.00 1.3556e-16 
4557.50 1.3518e-16 
4559.00 1.3120e-16 
4560.50 1.3548e-16 
4562.00 1.3284e-16 
4563.50 1.3670e-16 
4565.00 1.2754e-16 
4566.50 1.3816e-16 
4568.00 1.3540e-16 
4569.50 1.3307e-16 
4571.00 1.3403e-16 
4572.50 1.3377e-16 
4574.00 1.3337e-16 
4575.50 1.3250e-16 
4577.00 1.3034e-16 
4578.50 1.2966e-16 
4580.00 1.3729e-16 
4581.50 1.3127e-16 
4583.00 1.3824e-16 
4584.50 1.3544e-16 
4586.00 1.3414e-16 
4587.50 1.3395e-16 
4589.00 1.3425e-16 
4590.50 1.3547e-16 
4592.00 1.3300e-16 
4593.50 1.3382e-16 
4595.00 1.3139e-16 
4596.50 1.3173e-16 
4598.00 1.3417e-16 
4599.50 1.3343e-16 
4601.00 1.2615e-16 
4602.50 1.3076e-16 
4604.00 1.3109e-16 
4605.50 1.3194e-16 
4607.00 1.3500e-16 
4608.50 1.3094e-16 
4610.00 1.3409e-16 
4611.50 1.2876e-16 
4613.00 1.3195e-16 
4614.50 7.3828e-17 
4616.00 1.3085e-16 
4617.50 1.3027e-16 
4619.00 1.3392e-16 
4620.50 1.3045e-16 
4622.00 1.3326e-16 
4623.50 1.3192e-16 
4625.00 1.2582e-16 
4626.50 1.3000e-16 
4628.00 1.3135e-16 
4629.50 1.3267e-16 
4631.00 1.2817e-16 
4632.50 1.3339e-16 
4634.00 1.2944e-16 
4635.50 1.3259e-16 
4637.00 1.3063e-16 
4638.50 1.2888e-16 
4640.00 1.3191e-16 
4641.50 1.2871e-16 
4643.00 1.3350e-16 
4644.50 1.2700e-16 
4646.00 1.3435e-16 
4647.50 1.2673e-16 
4649.00 1.3391e-16 
4650.50 1.3407e-16 
4652.00 1.3100e-16 
4653.50 1.2723e-16 
4655.00 1.3206e-16 
4656.50 1.3198e-16 
4658.00 1.2865e-16 
4659.50 1.2778e-16 
4661.00 1.2735e-16 
4662.50 1.3597e-16 
4664.00 1.2880e-16 
4665.50 1.3108e-16 
4667.00 1.3055e-16 
4668.50 1.3084e-16 
4670.00 1.2964e-16 
4671.50 1.3031e-16 
4673.00 1.3016e-16 
4674.50 1.2877e-16 
4676.00 1.2974e-16 
4677.50 1.2629e-16 
4679.00 1.3231e-16 
4680.50 1.2704e-16 
4682.00 1.3543e-16 
4683.50 1.3241e-16 
4685.00 1.3213e-16 
4686.50 1.2961e-16 
4688.00 1.3132e-16 
4689.50 1.3161e-16 
4691.00 1.3018e-16 
4692.50 1.3292e-16 
4694.00 1.2798e-16 
4695.50 1.3288e-16 
4697.00 1.2785e-16 
4698.50 1.3341e-16 
4700.00 1.2835e-16 
4701.50 1.3190e-16 
4703.00 1.3070e-16 
4704.50 1.2830e-16 
4706.00 1.3430e-16 
4707.50 1.2693e-16 
4709.00 1.3344e-16 
4710.50 1.3018e-16 
4712.00 1.3411e-16 
4713.50 1.3131e-16 
4715.00 1.3444e-16 
4716.50 1.2886e-16 
4718.00 1.3501e-16 
4719.50 1.3278e-16 
4721.00 1.3231e-16 
4722.50 1.3451e-16 
4724.00 1.3123e-16 
4725.50 1.3434e-16 
4727.00 1.2825e-16 
4728.50 1.3295e-16 
4730.00 1.3150e-16 
4731.50 1.3041e-16 
4733.00 1.3353e-16 
4734.50 1.3127e-16 
4736.00 1.3516e-16 
4737.50 1.3369e-16 
4739.00 1.3550e-16 
4740.50 1.3616e-16 
4742.00 1.3620e-16 
4743.50 1.3161e-16 
4745.00 1.3830e-16 
4746.50 1.3463e-16 
4748.00 1.3671e-16 
4749.50 1.3497e-16 
4751.00 1.3695e-16 
4752.50 1.3770e-16 
4754.00 1.3552e-16 
4755.50 1.3763e-16 
4757.00 1.3065e-16 
4758.50 1.3934e-16 
4760.00 1.3306e-16 
4761.50 1.3365e-16 
4763.00 1.3398e-16 
4764.50 1.3460e-16 
4766.00 1.3576e-16 
4767.50 1.3609e-16 
4769.00 1.3939e-16 
4770.50 1.3577e-16 
4772.00 1.3675e-16 
4773.50 1.3272e-16 
4775.00 1.3883e-16 
4776.50 1.2983e-16 
4778.00 1.3994e-16 
4779.50 1.3521e-16 
4781.00 1.3942e-16 
4782.50 1.3464e-16 
4784.00 1.3452e-16 
4785.50 1.3487e-16 
4787.00 1.3323e-16 
4788.50 1.3309e-16 
4790.00 1.3663e-16 
4791.50 1.3969e-16 
4793.00 1.3610e-16 
4794.50 1.3970e-16 
4796.00 1.3394e-16 
4797.50 1.3795e-16 
4799.00 1.3590e-16 
4800.50 1.3772e-16 
4802.00 1.3690e-16 
4803.50 1.3522e-16 
4805.00 1.3967e-16 
4806.50 1.3579e-16 
4808.00 1.4510e-16 
4809.50 1.3422e-16 
4811.00 1.3836e-16 
4812.50 1.3493e-16 
4814.00 1.4019e-16 
4815.50 1.3724e-16 
4817.00 1.3802e-16 
4818.50 1.3809e-16 
4820.00 1.3824e-16 
4821.50 1.3883e-16 
4823.00 1.3942e-16 
4824.50 1.4348e-16 
4826.00 1.4064e-16 
4827.50 1.3965e-16 
4829.00 1.3765e-16 
4830.50 1.4157e-16 
4832.00 1.3862e-16 
4833.50 1.3567e-16 
4835.00 1.4178e-16 
4836.50 1.3746e-16 
4838.00 1.4047e-16 
4839.50 1.3927e-16 
4841.00 1.4293e-16 
4842.50 1.3522e-16 
4844.00 1.3972e-16 
4845.50 1.3935e-16 
4847.00 1.4312e-16 
4848.50 1.3729e-16 
4850.00 1.3603e-16 
4851.50 1.4067e-16 
4853.00 1.3642e-16 
4854.50 1.3485e-16 
4856.00 1.3713e-16 
4857.50 1.4259e-16 
4859.00 1.3445e-16 
4860.50 1.3707e-16 
4862.00 1.3660e-16 
4863.50 1.3525e-16 
4865.00 1.3472e-16 
4866.50 1.3906e-16 
4868.00 1.3814e-16 
4869.50 1.3514e-16 
4871.00 1.3891e-16 
4872.50 1.3677e-16 
4874.00 1.3730e-16 
4875.50 1.3069e-16 
4877.00 1.3768e-16 
4878.50 1.3407e-16 
4880.00 1.3574e-16 
4881.50 1.3468e-16 
4883.00 1.3441e-16 
4884.50 1.3708e-16 
4886.00 1.3114e-16 
4887.50 1.3159e-16 
4889.00 1.2254e-16 
4890.50 1.3093e-16 
4892.00 1.3091e-16 
4893.50 1.3290e-16 
4895.00 1.3159e-16 
4896.50 1.3641e-16 
4898.00 1.3165e-16 
4899.50 1.3167e-16 
4901.00 1.2710e-16 
4902.50 1.2601e-16 
4904.00 1.3403e-16 
4905.50 1.2668e-16 
4907.00 1.3471e-16 
4908.50 1.3283e-16 
4910.00 1.3575e-16 
4911.50 1.3007e-16 
4913.00 1.3579e-16 
4914.50 1.3284e-16 
4916.00 1.2997e-16 
4917.50 1.3336e-16 
4919.00 1.2774e-16 
4920.50 1.3399e-16 
4922.00 1.2907e-16 
4923.50 1.3743e-16 
4925.00 1.3170e-16 
4926.50 1.2970e-16 
4928.00 1.3078e-16 
4929.50 1.3005e-16 
4931.00 1.3323e-16 
4932.50 1.2828e-16 
4934.00 1.3617e-16 
4935.50 1.2942e-16 
4937.00 1.3329e-16 
4938.50 1.2685e-16 
4940.00 1.3215e-16 
4941.50 1.2871e-16 
4943.00 1.1381e-16 
4944.50 1.2973e-16 
4946.00 1.3430e-16 
4947.50 1.3131e-16 
4949.00 1.3038e-16 
4950.50 1.3143e-16 
4952.00 1.3034e-16 
4953.50 1.3429e-16 
4955.00 1.2740e-16 
4956.50 1.3089e-16 
4958.00 1.3301e-16 
4959.50 1.3537e-16 
4961.00 1.3322e-16 
4962.50 1.3088e-16 
4964.00 1.2585e-16 
4965.50 1.3539e-16 
4967.00 1.3269e-16 
4968.50 1.3100e-16 
4970.00 1.3366e-16 
4971.50 1.2815e-16 
4973.00 1.3591e-16 
4974.50 1.3060e-16 
4976.00 1.3479e-16 
4977.50 1.3172e-16 
4979.00 1.3311e-16 
4980.50 1.2923e-16 
4982.00 1.3135e-16 
4983.50 1.3269e-16 
4985.00 1.3535e-16 
4986.50 1.3563e-16 
4988.00 1.3006e-16 
4989.50 1.3742e-16 
4991.00 1.3462e-16 
4992.50 1.3452e-16 
4994.00 1.3111e-16 
4995.50 1.3311e-16 
4997.00 1.3603e-16 
4998.50 1.3316e-16 
5000.00 1.3613e-16 
5001.50 1.2884e-16 
5003.00 1.3702e-16 
5004.50 1.3187e-16 
5006.00 1.3280e-16 
5007.50 1.3023e-16 
5009.00 1.3609e-16 
5010.50 1.3414e-16 
5012.00 1.3787e-16 
5013.50 1.3293e-16 
5015.00 1.3353e-16 
5016.50 1.3543e-16 
5018.00 1.3159e-16 
5019.50 1.3442e-16 
5021.00 1.2444e-16 
5022.50 1.3562e-16 
5024.00 1.3209e-16 
5025.50 1.3989e-16 
5027.00 1.3408e-16 
5028.50 1.3247e-16 
5030.00 1.3521e-16 
5031.50 1.3496e-16 
5033.00 1.3426e-16 
5034.50 1.3696e-16 
5036.00 1.3962e-16 
5037.50 1.3813e-16 
5039.00 1.4025e-16 
5040.50 1.4186e-16 
5042.00 1.3475e-16 
5043.50 1.3933e-16 
5045.00 1.3749e-16 
5046.50 1.3744e-16 
5048.00 1.3324e-16 
5049.50 1.3570e-16 
5051.00 1.3327e-16 
5052.50 1.3269e-16 
5054.00 1.3410e-16 
5055.50 1.3271e-16 
5057.00 1.3326e-16 
5058.50 1.3697e-16 
5060.00 1.3381e-16 
5061.50 1.3240e-16 
5063.00 1.3393e-16 
5064.50 1.3460e-16 
5066.00 1.3420e-16 
5067.50 1.3420e-16 
5069.00 1.3454e-16 
5070.50 1.3573e-16 
5072.00 1.3746e-16 
5073.50 1.3454e-16 
5075.00 1.3453e-16 
5076.50 1.3698e-16 
5078.00 1.3897e-16 
5079.50 1.3493e-16 
5081.00 1.3534e-16 
5082.50 1.3353e-16 
5084.00 1.3322e-16 
5085.50 1.3440e-16 
5087.00 1.3201e-16 
5088.50 1.3404e-16 
5090.00 1.3057e-16 
5091.50 1.3472e-16 
5093.00 1.3170e-16 
5094.50 1.3241e-16 
5096.00 1.3134e-16 
5097.50 1.3254e-16 
5099.00 1.3446e-16 
5100.50 1.2984e-16 
5102.00 1.3043e-16 
5103.50 1.2770e-16 
5105.00 1.3539e-16 
5106.50 1.2901e-16 
5108.00 1.3525e-16 
5109.50 1.3222e-16 
5111.00 1.3246e-16 
5112.50 1.3151e-16 
5114.00 1.3220e-16 
5115.50 1.3188e-16 
5117.00 1.3243e-16 
5118.50 1.3478e-16 
5120.00 1.3226e-16 
5121.50 1.3524e-16 
5123.00 1.2989e-16 
5124.50 1.2737e-16 
5126.00 1.2338e-16 
5127.50 1.3008e-16 
5129.00 1.2890e-16 
5130.50 1.3108e-16 
5132.00 1.3267e-16 
5133.50 1.3264e-16 
5135.00 1.3364e-16 
5136.50 1.3142e-16 
5138.00 1.3041e-16 
5139.50 1.2597e-16 
5141.00 1.2783e-16 
5142.50 1.2953e-16 
5144.00 1.3032e-16 
5145.50 1.3126e-16 
5147.00 1.2981e-16 
5148.50 1.3277e-16 
5150.00 1.3252e-16 
5151.50 1.3566e-16 
5153.00 1.2898e-16 
5154.50 1.3316e-16 
5156.00 1.3002e-16 
5157.50 1.3217e-16 
5159.00 1.2974e-16 
5160.50 1.3301e-16 
5162.00 1.3370e-16 
5163.50 1.3260e-16 
5165.00 1.3292e-16 
5166.50 1.3013e-16 
5168.00 1.2650e-16 
5169.50 1.2747e-16 
5171.00 1.3426e-16 
5172.50 1.3239e-16 
5174.00 1.3329e-16 
5175.50 1.2954e-16 
5177.00 1.3428e-16 
5178.50 1.3207e-16 
5180.00 1.3413e-16 
5181.50 1.2947e-16 
5183.00 1.3055e-16 
5184.50 1.3284e-16 
5186.00 1.3224e-16 
5187.50 1.3114e-16 
5189.00 1.3057e-16 
5190.50 1.3545e-16 
5192.00 1.3314e-16 
5193.50 1.3007e-16 
5195.00 1.2762e-16 
5196.50 1.3125e-16 
5198.00 1.3002e-16 
5199.50 1.3223e-16 
5201.00 1.3494e-16 
5202.50 1.3338e-16 
5204.00 1.3500e-16 
5205.50 1.2927e-16 
5207.00 1.3520e-16 
5208.50 1.2872e-16 
5210.00 1.3104e-16 
5211.50 1.2836e-16 
5213.00 1.3186e-16 
5214.50 1.3471e-16 
5216.00 1.3435e-16 
5217.50 1.3310e-16 
5219.00 1.2757e-16 
5220.50 1.2815e-16 
5222.00 1.2837e-16 
5223.50 1.3360e-16 
5225.00 1.2980e-16 
5226.50 1.3144e-16 
5228.00 1.2886e-16 
5229.50 1.2852e-16 
5231.00 1.3231e-16 
5232.50 1.3039e-16 
5234.00 1.2926e-16 
5235.50 1.2845e-16 
5237.00 1.3023e-16 
5238.50 1.2724e-16 
5240.00 1.3220e-16 
5241.50 1.2950e-16 
5243.00 1.3100e-16 
5244.50 1.2857e-16 
5246.00 1.3367e-16 
5247.50 1.2872e-16 
5249.00 1.3065e-16 
5250.50 1.3074e-16 
5252.00 1.2950e-16 
5253.50 1.3043e-16 
5255.00 1.2748e-16 
5256.50 1.3028e-16 
5258.00 1.2729e-16 
5259.50 1.3126e-16 
5261.00 1.2657e-16 
5262.50 1.3115e-16 
5264.00 1.2808e-16 
5265.50 1.3159e-16 
5267.00 1.2941e-16 
5268.50 1.2948e-16 
5270.00 1.3024e-16 
5271.50 1.2829e-16 
5273.00 1.2697e-16 
5274.50 1.2758e-16 
5276.00 1.2860e-16 
5277.50 1.2643e-16 
5279.00 1.3707e-16 
5280.50 1.1486e-16 
5282.00 1.2645e-16 
5283.50 1.2331e-16 
5285.00 1.2821e-16 
5286.50 1.2818e-16 
5288.00 1.2654e-16 
5289.50 1.3125e-16 
5291.00 1.2509e-16 
5292.50 1.2864e-16 
5294.00 1.2768e-16 
5295.50 1.2977e-16 
5297.00 1.2479e-16 
5298.50 1.2633e-16 
5300.00 1.2209e-16 
5301.50 1.2693e-16 
5303.00 1.2939e-16 
5304.50 1.2658e-16 
5306.00 1.3025e-16 
5307.50 1.2504e-16 
5309.00 1.2785e-16 
5310.50 1.2458e-16 
5312.00 1.2416e-16 
5313.50 1.2542e-16 
5315.00 1.2740e-16 
5316.50 1.2628e-16 
5318.00 1.2516e-16 
5319.50 1.2581e-16 
5321.00 1.2856e-16 
5322.50 1.2355e-16 
5324.00 1.2531e-16 
5325.50 1.2629e-16 
5327.00 1.2720e-16 
5328.50 1.2397e-16 
5330.00 1.2675e-16 
5331.50 1.2737e-16 
5333.00 1.2815e-16 
5334.50 1.2998e-16 
5336.00 1.2485e-16 
5337.50 1.2483e-16 
5339.00 1.2650e-16 
5340.50 1.2258e-16 
5342.00 1.2770e-16 
5343.50 1.2355e-16 
5345.00 1.2277e-16 
5346.50 1.2467e-16 
5348.00 1.2355e-16 
5349.50 1.2382e-16 
5351.00 1.2264e-16 
5352.50 1.2359e-16 
5354.00 1.2657e-16 
5355.50 1.2325e-16 
5357.00 1.2523e-16 
5358.50 1.2694e-16 
5360.00 1.2348e-16 
5361.50 1.2933e-16 
5363.00 1.1835e-16 
5364.50 1.2436e-16 
5366.00 1.2417e-16 
5367.50 1.2280e-16 
5369.00 1.2175e-16 
5370.50 1.2570e-16 
5372.00 1.2531e-16 
5373.50 1.2492e-16 
5375.00 1.2290e-16 
5376.50 1.2030e-16 
5378.00 1.2448e-16 
5379.50 1.2496e-16 
5381.00 1.2517e-16 
5382.50 1.2258e-16 
5384.00 1.2656e-16 
5385.50 1.2065e-16 
5387.00 1.2314e-16 
5388.50 1.2132e-16 
5390.00 1.2622e-16 
5391.50 1.2294e-16 
5393.00 1.2286e-16 
5394.50 1.2071e-16 
5396.00 1.2393e-16 
5397.50 1.2438e-16 
5399.00 1.2116e-16 
5400.50 1.2315e-16 
5402.00 1.1735e-16 
5403.50 1.2335e-16 
5405.00 1.2252e-16 
5406.50 1.2547e-16 
5408.00 1.2140e-16 
5409.50 1.2299e-16 
5411.00 1.2282e-16 
5412.50 1.2226e-16 
5414.00 1.2403e-16 
5415.50 1.1913e-16 
5417.00 1.2218e-16 
5418.50 1.1577e-16 
5420.00 1.2368e-16 
5421.50 1.2113e-16 
5423.00 1.2236e-16 
5424.50 1.2152e-16 
5426.00 1.2045e-16 
5427.50 1.1886e-16 
5429.00 1.2013e-16 
5430.50 1.2080e-16 
5432.00 1.1998e-16 
5433.50 1.2114e-16 
5435.00 1.1885e-16 
5436.50 1.2358e-16 
5438.00 1.1684e-16 
5439.50 1.2317e-16 
5441.00 1.2243e-16 
5442.50 1.2272e-16 
5444.00 1.2344e-16 
5445.50 1.1987e-16 
5447.00 1.2002e-16 
5448.50 1.2255e-16 
5450.00 1.2218e-16 
5451.50 1.1698e-16 
5453.00 1.2009e-16 
5454.50 1.1693e-16 
5456.00 1.1950e-16 
5457.50 1.1973e-16 
5459.00 1.2124e-16 
5460.50 1.2017e-16 
5462.00 1.1950e-16 
5463.50 1.1557e-16 
5465.00 1.1543e-16 
5466.50 1.1992e-16 
5468.00 1.1608e-16 
5469.50 1.2000e-16 
5471.00 1.1903e-16 
5472.50 1.2127e-16 
5474.00 1.1595e-16 
5475.50 1.1503e-16 
5477.00 1.2111e-16 
5478.50 1.1491e-16 
5480.00 1.2118e-16 
5481.50 1.1700e-16 
5483.00 1.1765e-16 
5484.50 1.1776e-16 
5486.00 1.1801e-16 
5487.50 1.1478e-16 
5489.00 1.1704e-16 
5490.50 1.1758e-16 
5492.00 1.1945e-16 
5493.50 1.1961e-16 
5495.00 1.1654e-16 
5496.50 1.1855e-16 
5498.00 1.1454e-16 
5499.50 1.1443e-16 
5501.00 1.1389e-16 
5502.50 1.1498e-16 
5504.00 1.1487e-16 
5505.50 1.1395e-16 
5507.00 1.1425e-16 
5508.50 1.1560e-16 
5510.00 1.1255e-16 
5511.50 1.1250e-16 
5513.00 1.1284e-16 
5514.50 1.1711e-16 
5516.00 1.1492e-16 
5517.50 1.1011e-16 
5519.00 1.1791e-16 
5520.50 1.1459e-16 
5522.00 1.1706e-16 
5523.50 1.1145e-16 
5525.00 1.1205e-16 
5526.50 1.1478e-16 
5528.00 1.1504e-16 
5529.50 1.1598e-16 
5531.00 1.1765e-16 
5532.50 1.1526e-16 
5534.00 1.1917e-16 
5535.50 1.1299e-16 
5537.00 1.1347e-16 
5538.50 1.1337e-16 
5540.00 1.1414e-16 
5541.50 1.1607e-16 
5543.00 1.1278e-16 
5544.50 1.1565e-16 
5546.00 1.1445e-16 
5547.50 1.2272e-16 
5549.00 1.2121e-16 
5550.50 1.1772e-16 
5552.00 1.1515e-16 
5553.50 1.1226e-16 
5555.00 1.1311e-16 
5556.50 1.1749e-16 
5558.00 1.1588e-16 
5559.50 1.1594e-16 
5561.00 1.1335e-16 
5562.50 1.0930e-16 
5564.00 1.1843e-16 
5565.50 1.1307e-16 
5567.00 1.1863e-16 
5568.50 1.1513e-16 
5570.00 1.1908e-16 
5571.50 1.1646e-16 
5573.00 1.1937e-16 
5574.50 1.1299e-16 
5576.00 1.1956e-16 
5577.50 1.1711e-16 
5579.00 1.2003e-16 
5580.50 1.1895e-16 
5582.00 1.1541e-16 
5583.50 1.2005e-16 
5585.00 1.1324e-16 
5586.50 1.1841e-16 
5588.00 1.1544e-16 
5589.50 1.1502e-16 
5591.00 1.1725e-16 
5592.50 1.1226e-16 
5594.00 1.1769e-16 
5595.50 1.2119e-16 
5597.00 1.1824e-16 
5598.50 1.2260e-16 
5600.00 0
5601.50 0
5603.00 0
5604.50 0
5606.00 0
5607.50 0
5609.00 0
5610.50 0
5612.00 0
5613.50 0
5615.00 0
5616.50 0
5618.00 0
5619.50 0
5621.00 0
5622.50 0
5624.00 0
5625.50 0
5627.00 0
5628.50 0
5630.00 0
5631.50 0
5633.00 0
5634.50 0
5636.00 0
5637.50 0
5639.00 0
5640.50 0
5642.00 0
5643.50 0
5645.00 0
5646.50 0
5648.00 0
5649.50 0
5651.00 0
5652.50 0
5654.00 0
5655.50 0
5657.00 0
5658.50 0
5660.00 0
5661.50 0
5663.00 0
5664.50 0
5666.00 0
5667.50 0
5669.00 0
5670.50 0
5672.00 0
5673.50 0
5675.00 0
5676.50 0
5678.00 0
5679.50 0
5681.00 0
5682.50 0
5684.00 0
5685.50 0
5687.00 0
5688.50 0
5690.00 0
5691.50 0
5693.00 0
5694.50 0
5696.00 0
5697.50 0
5699.00 0
5700.50 0
5702.00 0
5703.50 0
5705.00 0
5706.50 0
5708.00 0
5709.50 0
5711.00 0
5712.50 0
5714.00 0
5715.50 0
5717.00 0
5718.50 0
5720.00 0
5721.50 0
5723.00 0
5724.50 0
5726.00 0
5727.50 0
5729.00 0
5730.50 0
5732.00 0
5733.50 0
5735.00 0
5736.50 0
5738.00 0
5739.50 0
5741.00 0
5742.50 0
5744.00 0
5745.50 0
5747.00 0
5748.50 0
5750.00 0
5751.50 0
5753.00 0
5754.50 0
5756.00 0
5757.50 0
5759.00 0
5760.50 0
5762.00 0
5763.50 0
5765.00 0
5766.50 0
5768.00 0
5769.50 0
5771.00 0
5772.50 0
5774.00 0
5775.50 0
5777.00 0
5778.50 0
5780.00 0
5781.50 0
5783.00 0
5784.50 0
5786.00 0
5787.50 0
5789.00 0
5790.50 0
5792.00 0
5793.50 0
5795.00 0
5796.50 0
5798.00 0
5799.50 0
5801.00 1.5215e-16 
5802.50 1.5609e-16 
5804.00 1.5563e-16 
5805.50 1.5792e-16 
5807.00 1.5816e-16 
5808.50 1.5811e-16 
5810.00 1.6112e-16 
5811.50 1.6261e-16 
5813.00 1.6247e-16 
5814.50 1.6243e-16 
5816.00 1.6416e-16 
5817.50 1.6092e-16 
5819.00 1.6522e-16 
5820.50 1.6531e-16 
5822.00 1.6401e-16 
5823.50 1.6379e-16 
5825.00 1.6217e-16 
5826.50 1.6304e-16 
5828.00 1.6516e-16 
5829.50 1.6438e-16 
5831.00 1.5971e-16 
5832.50 1.5913e-16 
5834.00 1.5991e-16 
5835.50 1.5839e-16 
5837.00 1.5695e-16 
5838.50 1.5637e-16 
5840.00 1.5403e-16 
5841.50 1.5543e-16 
5843.00 1.5372e-16 
5844.50 1.5296e-16 
5846.00 1.5466e-16 
5847.50 1.5227e-16 
5849.00 1.4945e-16 
5850.50 1.4858e-16 
5852.00 1.4498e-16 
5853.50 1.4541e-16 
5855.00 1.4531e-16 
5856.50 1.4256e-16 
5858.00 1.3970e-16 
5859.50 1.4017e-16 
5861.00 1.3843e-16 
5862.50 1.3729e-16 
5864.00 1.3389e-16 
5865.50 1.3281e-16 
5867.00 1.3234e-16 
5868.50 1.3098e-16 
5870.00 1.3091e-16 
5871.50 1.2798e-16 
5873.00 1.2883e-16 
5874.50 1.2671e-16 
5876.00 1.2702e-16 
5877.50 1.2432e-16 
5879.00 1.2407e-16 
5880.50 1.2385e-16 
5882.00 1.2266e-16 
5883.50 1.2307e-16 
5885.00 1.1895e-16 
5886.50 1.1937e-16 
5888.00 1.2122e-16 
5889.50 1.1644e-16 
5891.00 1.1437e-16 
5892.50 1.1300e-16 
5894.00 1.1281e-16 
5895.50 1.1483e-16 
5897.00 1.1546e-16 
5898.50 1.1433e-16 
5900.00 1.1348e-16 
5901.50 1.1312e-16 
5903.00 1.1259e-16 
5904.50 1.1553e-16 
5906.00 1.1431e-16 
5907.50 1.1443e-16 
5909.00 1.1254e-16 
5910.50 1.1157e-16 
5912.00 1.1116e-16 
5913.50 1.1385e-16 
5915.00 1.1267e-16 
5916.50 1.1478e-16 
5918.00 1.1144e-16 
5919.50 1.1108e-16 
5921.00 1.0879e-16 
5922.50 1.1029e-16 
5924.00 1.0679e-16 
5925.50 1.0964e-16 
5927.00 1.1175e-16 
5928.50 1.0771e-16 
5930.00 1.0854e-16 
5931.50 1.1239e-16 
5933.00 1.0864e-16 
5934.50 1.0945e-16 
5936.00 1.0932e-16 
5937.50 1.0922e-16 
5939.00 1.0869e-16 
5940.50 1.0849e-16 
5942.00 1.0816e-16 
5943.50 1.0724e-16 
5945.00 1.0561e-16 
5946.50 1.0712e-16 
5948.00 1.0669e-16 
5949.50 1.0760e-16 
5951.00 1.0733e-16 
5952.50 1.0646e-16 
5954.00 1.0601e-16 
5955.50 1.0518e-16 
5957.00 1.0645e-16 
5958.50 1.0590e-16 
5960.00 1.0797e-16 
5961.50 1.0500e-16 
5963.00 1.0506e-16 
5964.50 1.0368e-16 
5966.00 1.0657e-16 
5967.50 1.0734e-16 
5969.00 1.0493e-16 
5970.50 1.0556e-16 
5972.00 1.0278e-16 
5973.50 1.0412e-16 
5975.00 1.0581e-16 
5976.50 1.0332e-16 
5978.00 1.0500e-16 
5979.50 1.0321e-16 
5981.00 1.0593e-16 
5982.50 1.0493e-16 
5984.00 1.0379e-16 
5985.50 1.0473e-16 
5987.00 1.0352e-16 
5988.50 1.0475e-16 
5990.00 1.0482e-16 
5991.50 1.0539e-16 
5993.00 1.0511e-16 
5994.50 1.0415e-16 
5996.00 1.0460e-16 
5997.50 1.0203e-16 
5999.00 1.0265e-16 
6000.50 1.0383e-16 
6002.00 1.0328e-16 
6003.50 1.0441e-16 
6005.00 1.0565e-16 
6006.50 1.0356e-16 
6008.00 1.0371e-16 
6009.50 1.0448e-16 
6011.00 1.0330e-16 
6012.50 1.0405e-16 
6014.00 1.0345e-16 
6015.50 1.0429e-16 
6017.00 1.0397e-16 
6018.50 1.0327e-16 
6020.00 1.0315e-16 
6021.50 1.0404e-16 
6023.00 1.0214e-16 
6024.50 1.0353e-16 
6026.00 1.0266e-16 
6027.50 1.0164e-16 
6029.00 1.0169e-16 
6030.50 1.0182e-16 
6032.00 1.0242e-16 
6033.50 1.0129e-16 
6035.00 1.0412e-16 
6036.50 1.0265e-16 
6038.00 1.0208e-16 
6039.50 1.0394e-16 
6041.00 1.0123e-16 
6042.50 1.0269e-16 
6044.00 1.0111e-16 
6045.50 1.0236e-16 
6047.00 1.0111e-16 
6048.50 1.0330e-16 
6050.00 1.0284e-16 
6051.50 1.0224e-16 
6053.00 1.0300e-16 
6054.50 1.0216e-16 
6056.00 1.0119e-16 
6057.50 1.0167e-16 
6059.00 1.0126e-16 
6060.50 1.0316e-16 
6062.00 1.0204e-16 
6063.50 1.0274e-16 
6065.00 1.0282e-16 
6066.50 1.0213e-16 
6068.00 1.0184e-16 
6069.50 1.0290e-16 
6071.00 1.0434e-16 
6072.50 1.0161e-16 
6074.00 1.0278e-16 
6075.50 1.0140e-16 
6077.00 1.0403e-16 
6078.50 1.0497e-16 
6080.00 1.0195e-16 
6081.50 1.0118e-16 
6083.00 1.0241e-16 
6084.50 1.0559e-16 
6086.00 1.0391e-16 
6087.50 1.0348e-16 
6089.00 1.0327e-16 
6090.50 1.0328e-16 
6092.00 1.0402e-16 
6093.50 1.0567e-16 
6095.00 1.0263e-16 
6096.50 1.0512e-16 
6098.00 1.0501e-16 
6099.50 1.0392e-16 
6101.00 1.0379e-16 
6102.50 1.0641e-16 
6104.00 1.0388e-16 
6105.50 1.0438e-16 
6107.00 1.0294e-16 
6108.50 1.0420e-16 
6110.00 1.0469e-16 
6111.50 1.0124e-16 
6113.00 1.0398e-16 
6114.50 1.0402e-16 
6116.00 1.0451e-16 
6117.50 1.0351e-16 
6119.00 1.0436e-16 
6120.50 1.0374e-16 
6122.00 1.0457e-16 
6123.50 1.0487e-16 
6125.00 1.0388e-16 
6126.50 1.0357e-16 
6128.00 1.0311e-16 
6129.50 1.0341e-16 
6131.00 1.0366e-16 
6132.50 1.0358e-16 
6134.00 1.0327e-16 
6135.50 1.0348e-16 
6137.00 1.0287e-16 
6138.50 1.0399e-16 
6140.00 1.0379e-16 
6141.50 1.0346e-16 
6143.00 1.0615e-16 
6144.50 1.0504e-16 
6146.00 1.0408e-16 
6147.50 1.0599e-16 
6149.00 1.0411e-16 
6150.50 1.0457e-16 
6152.00 1.0313e-16 
6153.50 1.0502e-16 
6155.00 1.0546e-16 
6156.50 1.0411e-16 
6158.00 1.0573e-16 
6159.50 1.0149e-16 
6161.00 1.0416e-16 
6162.50 1.0381e-16 
6164.00 1.0396e-16 
6165.50 1.0355e-16 
6167.00 1.0320e-16 
6168.50 1.0404e-16 
6170.00 1.0342e-16 
6171.50 1.0302e-16 
6173.00 1.0474e-16 
6174.50 1.0294e-16 
6176.00 1.0158e-16 
6177.50 1.0215e-16 
6179.00 1.0354e-16 
6180.50 1.0391e-16 
6182.00 1.0179e-16 
6183.50 1.0239e-16 
6185.00 1.0155e-16 
6186.50 1.0189e-16 
6188.00 1.0166e-16 
6189.50 1.0218e-16 
6191.00 1.0182e-16 
6192.50 1.0255e-16 
6194.00 1.0323e-16 
6195.50 1.0109e-16 
6197.00 1.0033e-16 
6198.50 1.0132e-16 
6200.00 1.0146e-16 
6201.50 1.0010e-16 
6203.00 1.0069e-16 
6204.50 9.9125e-17 
6206.00 9.8831e-17 
6207.50 9.8278e-17 
6209.00 9.8539e-17 
6210.50 9.9048e-17 
6212.00 9.7288e-17 
6213.50 9.6183e-17 
6215.00 9.7029e-17 
6216.50 9.6348e-17 
6218.00 9.6957e-17 
6219.50 9.6601e-17 
6221.00 9.7429e-17 
6222.50 9.7926e-17 
6224.00 9.5531e-17 
6225.50 9.6266e-17 
6227.00 9.7127e-17 
6228.50 9.6429e-17 
6230.00 9.6266e-17 
6231.50 9.4837e-17 
6233.00 9.5058e-17 
6234.50 9.7391e-17 
6236.00 9.3776e-17 
6237.50 9.3104e-17 
6239.00 9.2691e-17 
6240.50 9.3650e-17 
6242.00 9.1903e-17 
6243.50 9.2510e-17 
6245.00 9.2968e-17 
6246.50 9.1168e-17 
6248.00 9.1559e-17 
6249.50 9.1515e-17 
6251.00 9.1420e-17 
6252.50 8.9970e-17 
6254.00 9.1521e-17 
6255.50 9.1501e-17 
6257.00 9.0119e-17 
6258.50 9.0337e-17 
6260.00 9.1363e-17 
6261.50 9.1022e-17 
6263.00 9.0624e-17 
6264.50 8.6751e-17 
6266.00 8.7249e-17 
6267.50 8.9874e-17 
6269.00 8.9421e-17 
6270.50 8.9291e-17 
6272.00 8.5189e-17 
6273.50 8.4768e-17 
6275.00 8.5880e-17 
6276.50 8.4419e-17 
6278.00 8.3038e-17 
6279.50 8.1401e-17 
6281.00 8.0961e-17 
6282.50 7.9875e-17 
6284.00 8.3464e-17 
6285.50 8.3321e-17 
6287.00 8.4060e-17 
6288.50 8.6584e-17 
6290.00 8.6233e-17 
6291.50 8.2830e-17 
6293.00 8.4524e-17 
6294.50 8.2774e-17 
6296.00 8.2459e-17 
6297.50 8.5840e-17 
6299.00 9.0135e-17 
6300.50 8.5170e-17 
6302.00 8.5614e-17 
6303.50 8.6333e-17 
6305.00 8.8114e-17 
6306.50 8.5331e-17 
6308.00 8.5606e-17 
6309.50 8.2834e-17 
6311.00 8.2880e-17 
6312.50 8.4389e-17 
6314.00 8.5003e-17 
6315.50 8.4809e-17 
6317.00 8.5573e-17 
6318.50 8.3880e-17 
6320.00 8.6239e-17 
6321.50 8.3651e-17 
6323.00 8.4519e-17 
6324.50 8.3803e-17 
6326.00 8.5033e-17 
6327.50 8.5793e-17 
6329.00 8.4739e-17 
6330.50 8.5222e-17 
6332.00 8.4722e-17 
6333.50 8.6442e-17 
6335.00 8.7064e-17 
6336.50 8.5663e-17 
6338.00 8.4481e-17 
6339.50 8.4773e-17 
6341.00 8.4333e-17 
6342.50 8.5100e-17 
6344.00 8.7139e-17 
6345.50 8.7040e-17 
6347.00 8.6313e-17 
6348.50 8.6351e-17 
6350.00 8.5953e-17 
6351.50 8.7951e-17 
6353.00 8.7531e-17 
6354.50 8.7267e-17 
6356.00 8.7514e-17 
6357.50 8.7017e-17 
6359.00 8.6830e-17 
6360.50 8.6975e-17 
6362.00 8.9095e-17 
6363.50 8.9284e-17 
6365.00 8.6824e-17 
6366.50 8.9120e-17 
6368.00 8.6764e-17 
6369.50 8.7866e-17 
6371.00 8.8293e-17 
6372.50 8.7744e-17 
6374.00 8.8558e-17 
6375.50 8.7781e-17 
6377.00 8.8308e-17 
6378.50 8.8865e-17 
6380.00 8.8223e-17 
6381.50 8.8345e-17 
6383.00 8.8607e-17 
6384.50 8.7314e-17 
6386.00 8.9428e-17 
6387.50 8.9200e-17 
6389.00 8.9368e-17 
6390.50 8.7834e-17 
6392.00 8.6626e-17 
6393.50 8.8585e-17 
6395.00 8.8338e-17 
6396.50 8.8390e-17 
6398.00 8.8492e-17 
6399.50 8.7601e-17 
6401.00 8.9785e-17 
6402.50 8.8582e-17 
6404.00 8.9044e-17 
6405.50 8.8299e-17 
6407.00 8.9338e-17 
6408.50 8.9895e-17 
6410.00 8.8282e-17 
6411.50 8.7022e-17 
6413.00 8.8690e-17 
6414.50 8.9349e-17 
6416.00 8.8522e-17 
6417.50 8.7215e-17 
6419.00 9.0164e-17 
6420.50 8.8646e-17 
6422.00 8.9056e-17 
6423.50 8.9013e-17 
6425.00 9.0461e-17 
6426.50 8.8034e-17 
6428.00 8.9411e-17 
6429.50 9.0209e-17 
6431.00 8.8606e-17 
6432.50 8.8742e-17 
6434.00 8.7374e-17 
6435.50 8.9471e-17 
6437.00 8.9320e-17 
6438.50 9.0955e-17 
6440.00 8.9668e-17 
6441.50 8.9840e-17 
6443.00 8.8713e-17 
6444.50 9.0584e-17 
6446.00 8.9473e-17 
6447.50 9.0664e-17 
6449.00 8.9377e-17 
6450.50 8.8807e-17 
6452.00 8.7886e-17 
6453.50 8.9611e-17 
6455.00 9.0899e-17 
6456.50 9.0815e-17 
6458.00 9.0225e-17 
6459.50 8.8908e-17 
6461.00 8.9739e-17 
6462.50 8.9928e-17 
6464.00 9.1497e-17 
6465.50 8.9714e-17 
6467.00 9.0982e-17 
6468.50 9.0874e-17 
6470.00 8.9481e-17 
6471.50 9.0531e-17 
6473.00 9.0586e-17 
6474.50 9.2393e-17 
6476.00 8.9089e-17 
6477.50 8.8258e-17 
6479.00 8.8747e-17 
6480.50 8.9014e-17 
6482.00 9.1118e-17 
6483.50 9.0730e-17 
6485.00 9.0197e-17 
6486.50 9.2453e-17 
6488.00 9.1911e-17 
6489.50 9.1404e-17 
6491.00 9.1066e-17 
6492.50 9.0359e-17 
6494.00 9.0255e-17 
6495.50 9.0559e-17 
6497.00 9.0717e-17 
6498.50 9.0659e-17 
6500.00 8.9380e-17 
6501.50 9.1977e-17 
6503.00 9.1001e-17 
6504.50 9.0697e-17 
6506.00 9.1381e-17 
6507.50 9.0598e-17 
6509.00 9.1972e-17 
6510.50 9.0907e-17 
6512.00 9.0712e-17 
6513.50 9.0065e-17 
6515.00 8.9292e-17 
6516.50 9.0763e-17 
6518.00 8.8587e-17 
6519.50 8.8914e-17 
6521.00 8.9808e-17 
6522.50 9.1673e-17 
6524.00 9.1861e-17 
6525.50 8.9534e-17 
6527.00 9.1155e-17 
6528.50 9.0005e-17 
6530.00 9.1978e-17 
6531.50 8.9886e-17 
6533.00 9.0016e-17 
6534.50 8.9519e-17 
6536.00 9.0842e-17 
6537.50 9.0388e-17 
6539.00 8.8658e-17 
6540.50 8.8093e-17 
6542.00 9.0738e-17 
6543.50 9.0563e-17 
6545.00 8.9801e-17 
6546.50 8.7860e-17 
6548.00 8.8826e-17 
6549.50 8.8951e-17 
6551.00 8.9417e-17 
6552.50 8.9010e-17 
6554.00 8.7474e-17 
6555.50 8.9607e-17 
6557.00 8.8979e-17 
6558.50 8.9339e-17 
6560.00 8.8578e-17 
6561.50 8.9539e-17 
6563.00 8.9433e-17 
6564.50 8.8508e-17 
6566.00 8.9721e-17 
6567.50 9.0481e-17 
6569.00 8.8161e-17 
6570.50 9.0390e-17 
6572.00 8.8948e-17 
6573.50 9.0347e-17 
6575.00 8.9760e-17 
6576.50 8.8811e-17 
6578.00 8.8604e-17 
6579.50 8.9147e-17 
6581.00 8.9020e-17 
6582.50 8.8221e-17 
6584.00 8.9139e-17 
6585.50 9.0118e-17 
6587.00 8.8810e-17 
6588.50 8.8382e-17 
6590.00 8.8882e-17 
6591.50 8.9849e-17 
6593.00 8.9873e-17 
6594.50 9.1276e-17 
6596.00 8.9582e-17 
6597.50 8.9853e-17 
6599.00 8.9570e-17 
6600.50 9.0246e-17 
6602.00 9.1558e-17 
6603.50 9.1329e-17 
6605.00 8.9690e-17 
6606.50 9.0839e-17 
6608.00 9.0732e-17 
6609.50 9.0641e-17 
6611.00 8.9800e-17 
6612.50 8.7987e-17 
6614.00 8.9049e-17 
6615.50 9.1175e-17 
6617.00 9.0437e-17 
6618.50 8.9734e-17 
6620.00 9.1618e-17 
6621.50 9.0004e-17 
6623.00 8.9737e-17 
6624.50 9.0393e-17 
6626.00 9.1185e-17 
6627.50 9.1624e-17 
6629.00 9.0203e-17 
6630.50 9.1973e-17 
6632.00 9.0502e-17 
6633.50 9.0641e-17 
6635.00 9.1106e-17 
6636.50 9.0549e-17 
6638.00 9.0003e-17 
6639.50 8.9710e-17 
6641.00 9.2327e-17 
6642.50 8.9162e-17 
6644.00 8.9552e-17 
6645.50 9.0215e-17 
6647.00 9.1078e-17 
6648.50 9.0202e-17 
6650.00 9.0965e-17 
6651.50 9.0459e-17 
6653.00 9.1268e-17 
6654.50 9.1362e-17 
6656.00 9.0835e-17 
6657.50 8.9852e-17 
6659.00 8.9923e-17 
6660.50 9.1086e-17 
6662.00 9.0992e-17 
6663.50 9.0614e-17 
6665.00 8.9606e-17 
6666.50 8.9802e-17 
6668.00 9.0449e-17 
6669.50 9.0202e-17 
6671.00 8.9305e-17 
6672.50 8.7774e-17 
6674.00 8.7563e-17 
6675.50 8.8260e-17 
6677.00 8.8558e-17 
6678.50 8.9953e-17 
6680.00 9.0089e-17 
6681.50 8.9525e-17 
6683.00 8.8882e-17 
6684.50 8.8505e-17 
6686.00 8.7742e-17 
6687.50 8.8427e-17 
6689.00 8.8651e-17 
6690.50 8.8590e-17 
6692.00 8.9656e-17 
6693.50 8.7635e-17 
6695.00 8.8688e-17 
6696.50 8.9927e-17 
6698.00 8.8456e-17 
6699.50 9.0021e-17 
6701.00 8.9121e-17 
6702.50 8.8892e-17 
6704.00 8.7749e-17 
6705.50 8.9202e-17 
6707.00 8.8785e-17 
6708.50 8.9344e-17 
6710.00 9.0014e-17 
6711.50 8.7936e-17 
6713.00 8.7727e-17 
6714.50 8.7643e-17 
6716.00 8.7004e-17 
6717.50 8.8403e-17 
6719.00 8.7891e-17 
6720.50 8.8952e-17 
6722.00 8.8390e-17 
6723.50 8.7305e-17 
6725.00 8.6447e-17 
6726.50 8.8329e-17 
6728.00 8.7455e-17 
6729.50 8.9868e-17 
6731.00 8.7501e-17 
6732.50 8.8486e-17 
6734.00 8.8557e-17 
6735.50 8.7087e-17 
6737.00 8.6252e-17 
6738.50 8.8650e-17 
6740.00 8.8939e-17 
6741.50 8.8994e-17 
6743.00 8.8698e-17 
6744.50 8.7593e-17 
6746.00 8.8662e-17 
6747.50 8.6744e-17 
6749.00 8.7969e-17 
6750.50 8.6883e-17 
6752.00 8.6438e-17 
6753.50 8.6555e-17 
6755.00 8.6976e-17 
6756.50 8.9162e-17 
6758.00 8.7512e-17 
6759.50 8.8295e-17 
6761.00 8.8094e-17 
6762.50 8.7001e-17 
6764.00 8.8467e-17 
6765.50 8.5918e-17 
6767.00 8.6133e-17 
6768.50 8.8628e-17 
6770.00 8.8216e-17 
6771.50 8.7220e-17 
6773.00 8.8128e-17 
6774.50 8.8960e-17 
6776.00 8.7389e-17 
6777.50 8.8242e-17 
6779.00 8.8159e-17 
6780.50 8.7776e-17 
6782.00 8.6561e-17 
6783.50 8.8143e-17 
6785.00 8.6462e-17 
6786.50 8.8143e-17 
6788.00 8.7306e-17 
6789.50 8.6966e-17 
6791.00 8.7637e-17 
6792.50 8.6639e-17 
6794.00 8.7511e-17 
6795.50 8.7764e-17 
6797.00 8.8519e-17 
6798.50 8.6955e-17 
6800.00 8.7031e-17 
6801.50 8.8001e-17 
6803.00 8.6986e-17 
6804.50 8.6139e-17 
6806.00 8.7619e-17 
6807.50 8.6355e-17 
6809.00 8.6763e-17 
6810.50 8.6947e-17 
6812.00 8.7773e-17 
6813.50 8.7258e-17 
6815.00 8.7602e-17 
6816.50 8.7149e-17 
6818.00 8.5478e-17 
6819.50 8.8083e-17 
6821.00 8.6140e-17 
6822.50 8.7871e-17 
6824.00 8.6899e-17 
6825.50 8.6861e-17 
6827.00 8.6264e-17 
6828.50 8.5581e-17 
6830.00 8.7180e-17 
6831.50 8.5323e-17 
6833.00 8.5314e-17 
6834.50 8.5921e-17 
6836.00 8.6426e-17 
6837.50 8.6789e-17 
6839.00 8.5354e-17 
6840.50 8.6024e-17 
6842.00 8.5286e-17 
6843.50 8.2677e-17 
6845.00 8.5009e-17 
6846.50 8.5056e-17 
6848.00 8.5247e-17 
6849.50 8.4116e-17 
6851.00 8.4265e-17 
6852.50 8.5271e-17 
6854.00 8.4805e-17 
6855.50 8.2535e-17 
6857.00 8.2210e-17 
6858.50 8.3526e-17 
6860.00 8.3057e-17 
6861.50 8.1672e-17 
6863.00 8.3604e-17 
6864.50 8.1036e-17 
6866.00 8.2342e-17 
6867.50 7.6145e-17 
6869.00 6.8351e-17 
6870.50 5.9963e-17 
6872.00 5.7887e-17 
6873.50 6.1049e-17 
6875.00 6.2114e-17 
6876.50 6.5173e-17 
6878.00 6.8019e-17 
6879.50 7.0853e-17 
6881.00 7.3969e-17 
6882.50 7.6416e-17 
6884.00 7.8577e-17 
6885.50 7.8515e-17 
6887.00 7.3754e-17 
6888.50 7.1726e-17 
6890.00 7.0674e-17 
6891.50 7.0342e-17 
6893.00 7.1232e-17 
6894.50 6.9771e-17 
6896.00 6.9784e-17 
6897.50 7.0754e-17 
6899.00 7.2158e-17 
6900.50 7.2656e-17 
6902.00 7.2528e-17 
6903.50 7.2857e-17 
6905.00 7.3769e-17 
6906.50 7.5318e-17 
6908.00 7.4212e-17 
6909.50 7.4983e-17 
6911.00 7.4143e-17 
6912.50 7.3691e-17 
6914.00 7.6049e-17 
6915.50 7.4807e-17 
6917.00 7.6403e-17 
6918.50 7.7258e-17 
6920.00 7.5815e-17 
6921.50 7.6804e-17 
6923.00 7.8066e-17 
6924.50 7.6906e-17 
6926.00 7.5764e-17 
6927.50 7.7385e-17 
6929.00 7.7925e-17 
6930.50 7.7551e-17 
6932.00 7.7157e-17 
6933.50 7.6008e-17 
6935.00 7.6235e-17 
6936.50 7.5138e-17 
6938.00 7.7110e-17 
6939.50 7.7536e-17 
6941.00 7.5598e-17 
6942.50 7.4577e-17 
6944.00 7.4859e-17 
6945.50 7.5445e-17 
6947.00 7.7879e-17 
6948.50 7.6868e-17 
6950.00 7.5524e-17 
6951.50 7.6542e-17 
6953.00 7.6628e-17 
6954.50 7.5596e-17 
6956.00 7.6549e-17 
6957.50 7.6141e-17 
6959.00 7.4970e-17 
6960.50 7.6271e-17 
6962.00 7.6407e-17 
6963.50 7.5484e-17 
6965.00 7.5638e-17 
6966.50 7.6244e-17 
6968.00 7.6681e-17 
6969.50 7.6455e-17 
6971.00 7.6108e-17 
6972.50 7.6471e-17 
6974.00 7.7084e-17 
6975.50 7.7278e-17 
6977.00 7.6645e-17 
6978.50 7.6977e-17 
6980.00 7.6679e-17 
6981.50 7.5607e-17 
6983.00 7.6154e-17 
6984.50 7.6189e-17 
6986.00 7.6197e-17 
6987.50 7.5675e-17 
6989.00 7.5461e-17 
6990.50 7.4864e-17 
6992.00 7.4928e-17 
6993.50 7.4211e-17 
6995.00 7.5293e-17 
6996.50 7.4455e-17 
6998.00 7.6179e-17 
6999.50 7.4639e-17 
7001.00 7.3844e-17 
7002.50 7.5721e-17 
7004.00 7.6024e-17 
7005.50 7.5424e-17 
7007.00 7.5073e-17 
7008.50 7.3815e-17 
7010.00 7.5138e-17 
7011.50 7.4952e-17 
7013.00 7.6722e-17 
7014.50 7.5141e-17 
7016.00 7.4093e-17 
7017.50 7.4921e-17 
7019.00 7.4944e-17 
7020.50 7.4847e-17 
7022.00 7.4373e-17 
7023.50 7.3854e-17 
7025.00 7.4286e-17 
7026.50 7.3405e-17 
7028.00 7.3825e-17 
7029.50 7.3055e-17 
7031.00 7.3994e-17 
7032.50 7.4405e-17 
7034.00 7.4321e-17 
7035.50 7.4624e-17 
7037.00 7.3714e-17 
7038.50 7.4557e-17 
7040.00 7.2822e-17 
7041.50 7.4363e-17 
7043.00 7.2816e-17 
7044.50 7.4163e-17 
7046.00 7.4492e-17 
7047.50 7.4142e-17 
7049.00 7.4276e-17 
7050.50 7.3953e-17 
7052.00 7.4709e-17 
7053.50 7.3216e-17 
7055.00 7.1155e-17 
7056.50 7.2540e-17 
7058.00 7.2753e-17 
7059.50 7.3408e-17 
7061.00 7.4876e-17 
7062.50 7.4226e-17 
7064.00 7.3253e-17 
7065.50 7.3894e-17 
7067.00 7.3961e-17 
7068.50 7.2958e-17 
7070.00 7.4268e-17 
7071.50 7.4150e-17 
7073.00 7.3854e-17 
7074.50 7.2284e-17 
7076.00 7.3789e-17 
7077.50 7.3651e-17 
7079.00 7.3404e-17 
7080.50 7.2730e-17 
7082.00 7.3519e-17 
7083.50 7.3907e-17 
7085.00 7.5733e-17 
7086.50 7.3421e-17 
7088.00 7.4569e-17 
7089.50 7.3616e-17 
7091.00 7.4555e-17 
7092.50 7.5169e-17 
7094.00 7.5182e-17 
7095.50 7.4186e-17 
7097.00 7.4787e-17 
7098.50 7.3862e-17 
7100.00 7.4332e-17 
7101.50 7.4445e-17 
7103.00 7.3631e-17 
7104.50 7.4835e-17 
7106.00 7.4779e-17 
7107.50 7.5959e-17 
7109.00 7.5397e-17 
7110.50 7.3929e-17 
7112.00 7.3105e-17 
7113.50 7.5011e-17 
7115.00 7.5272e-17 
7116.50 7.4318e-17 
7118.00 7.4285e-17 
7119.50 7.4349e-17 
7121.00 7.3198e-17 
7122.50 7.3513e-17 
7124.00 7.5236e-17 
7125.50 7.6627e-17 
7127.00 7.3253e-17 
7128.50 7.4180e-17 
7130.00 7.3930e-17 
7131.50 7.3592e-17 
7133.00 7.5053e-17 
7134.50 7.2983e-17 
7136.00 7.4183e-17 
7137.50 7.4465e-17 
7139.00 7.4797e-17 
7140.50 7.4992e-17 
7142.00 7.4255e-17 
7143.50 7.5633e-17 
7145.00 7.4817e-17 
7146.50 7.3296e-17 
7148.00 7.3883e-17 
7149.50 7.2390e-17 
7151.00 7.4374e-17 
7152.50 7.3223e-17 
7154.00 7.2619e-17 
7155.50 7.4586e-17 
7157.00 7.3862e-17 
7158.50 7.3833e-17 
7160.00 7.3433e-17 
7161.50 7.4398e-17 
7163.00 7.4330e-17 
7164.50 7.4404e-17 
7166.00 7.3726e-17 
7167.50 7.3947e-17 
7169.00 7.0518e-17 
7170.50 7.1419e-17 
7172.00 7.1280e-17 
7173.50 6.9421e-17 
7175.00 6.8731e-17 
7176.50 6.9452e-17 
7178.00 6.9418e-17 
7179.50 6.8645e-17 
7181.00 6.8938e-17 
7182.50 7.0068e-17 
7184.00 6.8074e-17 
7185.50 6.7510e-17 
7187.00 6.6497e-17 
7188.50 6.5347e-17 
7190.00 6.7154e-17 
7191.50 6.7892e-17 
7193.00 6.7913e-17 
7194.50 6.6591e-17 
7196.00 6.7775e-17 
7197.50 6.9326e-17 
7199.00 6.9904e-17 
7200.50 6.9210e-17 
7202.00 6.8142e-17 
7203.50 6.6288e-17 
7205.00 6.8292e-17 
7206.50 6.7684e-17 
7208.00 6.9142e-17 
7209.50 6.9987e-17 
7211.00 7.1944e-17 
7212.50 7.3481e-17 
7214.00 7.4382e-17 
7215.50 7.3661e-17 
7217.00 7.4856e-17 
7218.50 7.5793e-17 
7220.00 7.3663e-17 
7221.50 7.4212e-17 
7223.00 7.4692e-17 
7224.50 7.4785e-17 
7226.00 7.2847e-17 
7227.50 7.3222e-17 
7229.00 7.3413e-17 
7230.50 7.4277e-17 
7232.00 7.3445e-17 
7233.50 7.1280e-17 
7235.00 6.9182e-17 
7236.50 6.7474e-17 
7238.00 6.8207e-17 
7239.50 7.0015e-17 
7241.00 7.2187e-17 
7242.50 7.0290e-17 
7244.00 6.8597e-17 
7245.50 6.6744e-17 
7247.00 6.9108e-17 
7248.50 6.9075e-17 
7250.00 7.1664e-17 
7251.50 7.1478e-17 
7253.00 6.9359e-17 
7254.50 6.7102e-17 
7256.00 6.7093e-17 
7257.50 6.9932e-17 
7259.00 7.1768e-17 
7260.50 7.0906e-17 
7262.00 7.0261e-17 
7263.50 6.9636e-17 
7265.00 6.9226e-17 
7266.50 6.8263e-17 
7268.00 6.7989e-17 
7269.50 7.0513e-17 
7271.00 7.2809e-17 
7272.50 7.1854e-17 
7274.00 7.1816e-17 
7275.50 5.5103e-17 
7277.00 6.9301e-17 
7278.50 6.6331e-17 
7280.00 6.6902e-17 
7281.50 6.8874e-17 
7283.00 6.8788e-17 
7284.50 7.0654e-17 
7286.00 7.2214e-17 
7287.50 7.1792e-17 
7289.00 7.0385e-17 
7290.50 6.8603e-17 
7292.00 6.6820e-17 
7293.50 6.6990e-17 
7295.00 6.9046e-17 
7296.50 6.8502e-17 
7298.00 6.8624e-17 
7299.50 7.0465e-17 
7301.00 6.8907e-17 
7302.50 6.9326e-17 
7304.00 6.8438e-17 
7305.50 6.6991e-17 
7307.00 6.7545e-17 
7308.50 6.7608e-17 
7310.00 6.7547e-17 
7311.50 6.5710e-17 
7313.00 6.6879e-17 
7314.50 6.7893e-17 
7316.00 6.9273e-17 
7317.50 6.7193e-17 
7319.00 6.7830e-17 
7320.50 6.6787e-17 
7322.00 6.6039e-17 
7323.50 6.7795e-17 
7325.00 6.8050e-17 
7326.50 6.7115e-17 
7328.00 6.7545e-17 
7329.50 6.8040e-17 
7331.00 6.9340e-17 
7332.50 6.8578e-17 
7334.00 6.7469e-17 
7335.50 6.6766e-17 
7337.00 6.7946e-17 
7338.50 6.7822e-17 
7340.00 6.9187e-17 
7341.50 6.7061e-17 
7343.00 6.6071e-17 
7344.50 6.6786e-17 
7346.00 6.7777e-17 
7347.50 6.6051e-17 
7349.00 6.6220e-17 
7350.50 6.4889e-17 
7352.00 6.4022e-17 
7353.50 6.6005e-17 
7355.00 6.6557e-17 
7356.50 6.6003e-17 
7358.00 6.5682e-17 
7359.50 6.4303e-17 
7361.00 6.4140e-17 
7362.50 6.5088e-17 
7364.00 6.3995e-17 
7365.50 6.3135e-17 
7367.00 6.4116e-17 
7368.50 6.5718e-17 
7370.00 6.3625e-17 
7371.50 6.3417e-17 
7373.00 6.4411e-17 
7374.50 6.4618e-17 
7376.00 6.4715e-17 
7377.50 6.4872e-17 
7379.00 6.3475e-17 
7380.50 6.4462e-17 
7382.00 6.4690e-17 
7383.50 6.5686e-17 
7385.00 6.4474e-17 
7386.50 6.6091e-17 
7388.00 6.4555e-17 
7389.50 6.5181e-17 
7391.00 6.5406e-17 
7392.50 6.5189e-17 
7394.00 6.5105e-17 
7395.50 6.3408e-17 
7397.00 6.5720e-17 
7398.50 6.5777e-17 
7400.00 6.4931e-17 
7401.50 6.4807e-17 
7403.00 6.5656e-17 
7404.50 6.3777e-17 
7406.00 6.4158e-17 
7407.50 6.3987e-17 
7409.00 6.4716e-17 
7410.50 6.4853e-17 
7412.00 6.5573e-17 
7413.50 6.3927e-17 
7415.00 6.4173e-17 
7416.50 6.4828e-17 
7418.00 6.3845e-17 
7419.50 6.4844e-17 
7421.00 6.4972e-17 
7422.50 6.4844e-17 
7424.00 6.4135e-17 
7425.50 6.4250e-17 
7427.00 6.6886e-17 
7428.50 6.5428e-17 
7430.00 6.5092e-17 
7431.50 6.4176e-17 
7433.00 6.4743e-17 
7434.50 6.6489e-17 
7436.00 6.5463e-17 
7437.50 6.5765e-17 
7439.00 6.4010e-17 
7440.50 6.4978e-17 
7442.00 6.5633e-17 
7443.50 6.3645e-17 
7445.00 6.4864e-17 
7446.50 6.5225e-17 
7448.00 6.4794e-17 
7449.50 6.5145e-17 
7451.00 6.5616e-17 
7452.50 6.6376e-17 
7454.00 6.7155e-17 
7455.50 6.5811e-17 
7457.00 6.5715e-17 
7458.50 6.5638e-17 
7460.00 6.5050e-17 
7461.50 6.5315e-17 
7463.00 6.5405e-17 
7464.50 6.6059e-17 
7466.00 6.5598e-17 
7467.50 6.5203e-17 
7469.00 6.3986e-17 
7470.50 6.5297e-17 
7472.00 6.4756e-17 
7473.50 6.4118e-17 
7475.00 6.5032e-17 
7476.50 6.3859e-17 
7478.00 6.4178e-17 
7479.50 6.3676e-17 
7481.00 6.5169e-17 
7482.50 6.5743e-17 
7484.00 6.5189e-17 
7485.50 6.4582e-17 
7487.00 6.3785e-17 
7488.50 6.4376e-17 
7490.00 6.4723e-17 
7491.50 6.4643e-17 
7493.00 6.3628e-17 
7494.50 6.4942e-17 
7496.00 6.4485e-17 
7497.50 6.5618e-17 
7499.00 6.5036e-17 
7500.50 6.6765e-17 
7502.00 6.4413e-17 
7503.50 6.4245e-17 
7505.00 6.4520e-17 
7506.50 6.2682e-17 
7508.00 6.4850e-17 
7509.50 6.3698e-17 
7511.00 6.3119e-17 
7512.50 6.3592e-17 
7514.00 6.4060e-17 
7515.50 6.4454e-17 
7517.00 6.4311e-17 
7518.50 6.3965e-17 
7520.00 6.5694e-17 
7521.50 6.4105e-17 
7523.00 6.3166e-17 
7524.50 6.3789e-17 
7526.00 6.2658e-17 
7527.50 6.5017e-17 
7529.00 6.2497e-17 
7530.50 6.3677e-17 
7532.00 6.3730e-17 
7533.50 6.3193e-17 
7535.00 6.1965e-17 
7536.50 6.4486e-17 
7538.00 6.4002e-17 
7539.50 6.3110e-17 
7541.00 6.2863e-17 
7542.50 6.2967e-17 
7544.00 6.3757e-17 
7545.50 6.3967e-17 
7547.00 6.2367e-17 
7548.50 6.3338e-17 
7550.00 6.2728e-17 
7551.50 6.1650e-17 
7553.00 6.2974e-17 
7554.50 6.2985e-17 
7556.00 6.2516e-17 
7557.50 6.2794e-17 
7559.00 6.3227e-17 
7560.50 6.1271e-17 
7562.00 6.0191e-17 
7563.50 6.2316e-17 
7565.00 6.2128e-17 
7566.50 6.2475e-17 
7568.00 6.1616e-17 
7569.50 6.1121e-17 
7571.00 6.2424e-17 
7572.50 6.1139e-17 
7574.00 6.1868e-17 
7575.50 6.0233e-17 
7577.00 6.2535e-17 
7578.50 5.9770e-17 
7580.00 6.0472e-17 
7581.50 6.0263e-17 
7583.00 5.9904e-17 
7584.50 5.9801e-17 
7586.00 5.8473e-17 
7587.50 6.0186e-17 
7589.00 5.9894e-17 
7590.50 6.0591e-17 
7592.00 5.9294e-17 
7593.50 5.6805e-17 
7595.00 5.1695e-17 
7596.50 4.1379e-17 
7598.00 3.1109e-17 
7599.50 2.7247e-17 
7601.00 2.4492e-17 
7602.50 2.0743e-17 
7604.00 1.6803e-17 
7605.50 1.5969e-17 
7607.00 1.5001e-17 
7608.50 1.6250e-17 
7610.00 1.7638e-17 
7611.50 1.8940e-17 
7613.00 2.0992e-17 
7614.50 2.5235e-17 
7616.00 2.8243e-17 
7617.50 3.5717e-17 
7619.00 4.3536e-17 
7620.50 5.0160e-17 
7622.00 4.9041e-17 
7623.50 4.2371e-17 
7625.00 3.5478e-17 
7626.50 3.2229e-17 
7628.00 3.1938e-17 
7629.50 3.1053e-17 
7631.00 3.0510e-17 
7632.50 3.0904e-17 
7634.00 3.0246e-17 
7635.50 3.2048e-17 
7637.00 3.3209e-17 
7638.50 3.2336e-17 
7640.00 3.4098e-17 
7641.50 3.5127e-17 
7643.00 3.4326e-17 
7644.50 3.8631e-17 
7646.00 3.8497e-17 
7647.50 3.7740e-17 
7649.00 4.0370e-17 
7650.50 4.3541e-17 
7652.00 4.2387e-17 
7653.50 4.4600e-17 
7655.00 4.5432e-17 
7656.50 4.6178e-17 
7658.00 4.6926e-17 
7659.50 5.0283e-17 
7661.00 5.1096e-17 
7662.50 4.9176e-17 
7664.00 4.9401e-17 
7665.50 5.2284e-17 
7667.00 5.3342e-17 
7668.50 5.1347e-17 
7670.00 5.4350e-17 
7671.50 5.4766e-17 
7673.00 5.3440e-17 
7674.50 5.5214e-17 
7676.00 5.6011e-17 
7677.50 5.6397e-17 
7679.00 5.5931e-17 
7680.50 5.5651e-17 
7682.00 5.6909e-17 
7683.50 5.6671e-17 
7685.00 5.5782e-17 
7686.50 5.6983e-17 
7688.00 5.8752e-17 
7689.50 5.7537e-17 
7691.00 5.8293e-17 
7692.50 5.6215e-17 
7694.00 5.8248e-17 
7695.50 5.8356e-17 
7697.00 5.6465e-17 
7698.50 5.9121e-17 
7700.00 5.7739e-17 
7701.50 5.6256e-17 
7703.00 5.7366e-17 
7704.50 5.9430e-17 
7706.00 5.7862e-17 
7707.50 5.8332e-17 
7709.00 5.8050e-17 
7710.50 5.8359e-17 
7712.00 5.8729e-17 
7713.50 5.7155e-17 
7715.00 5.8667e-17 
7716.50 5.8060e-17 
7718.00 5.8929e-17 
7719.50 5.6904e-17 
7721.00 5.7321e-17 
7722.50 5.7552e-17 
7724.00 5.7949e-17 
7725.50 5.8020e-17 
7727.00 5.8891e-17 
7728.50 5.9842e-17 
7730.00 5.8302e-17 
7731.50 5.7740e-17 
7733.00 5.8699e-17 
7734.50 5.8123e-17 
7736.00 5.8629e-17 
7737.50 5.9169e-17 
7739.00 5.9280e-17 
7740.50 5.9807e-17 
7742.00 5.9751e-17 
7743.50 5.9870e-17 
7745.00 5.9179e-17 
7746.50 5.9114e-17 
7748.00 5.9517e-17 
7749.50 6.1095e-17 
7751.00 6.0801e-17 
7752.50 5.6511e-17 
7754.00 5.5548e-17 
7755.50 5.7721e-17 
7757.00 5.7462e-17 
7758.50 5.7814e-17 
7760.00 5.7253e-17 
7761.50 5.7147e-17 
7763.00 5.8101e-17 
7764.50 5.6895e-17 
7766.00 5.7042e-17 
7767.50 5.7836e-17 
7769.00 5.6930e-17 
7770.50 5.7144e-17 
7772.00 5.7389e-17 
7773.50 5.7807e-17 
7775.00 5.8005e-17 
7776.50 5.8497e-17 
7778.00 5.8409e-17 
7779.50 5.7448e-17 
7781.00 5.9270e-17 
7782.50 5.7913e-17 
7784.00 5.7219e-17 
7785.50 5.8721e-17 
7787.00 5.8322e-17 
7788.50 5.8015e-17 
7790.00 5.7697e-17 
7791.50 5.7883e-17 
7793.00 5.9620e-17 
7794.50 5.9336e-17 
7796.00 5.8719e-17 
7797.50 5.7428e-17 
7799.00 5.6972e-17 
7800.50 5.9301e-17 
7802.00 5.8795e-17 
7803.50 5.8994e-17 
7805.00 5.8489e-17 
7806.50 5.9153e-17 
7808.00 5.8302e-17 
7809.50 5.9144e-17 
7811.00 6.1199e-17 
7812.50 5.7481e-17 
7814.00 5.7503e-17 
7815.50 5.7987e-17 
7817.00 5.8706e-17 
7818.50 6.0747e-17 
7820.00 5.8626e-17 
7821.50 5.8299e-17 
7823.00 5.7865e-17 
7824.50 5.8765e-17 
7826.00 6.0119e-17 
7827.50 5.8137e-17 
7829.00 5.6949e-17 
7830.50 5.6725e-17 
7832.00 5.7921e-17 
7833.50 5.6395e-17 
7835.00 5.7801e-17 
7836.50 5.7168e-17 
7838.00 5.7597e-17 
7839.50 5.8347e-17 
7841.00 5.8157e-17 
7842.50 5.6999e-17 
7844.00 5.7588e-17 
7845.50 5.7874e-17 
7847.00 5.7874e-17 
7848.50 5.7668e-17 
7850.00 5.7082e-17 
7851.50 5.5597e-17 
7853.00 5.6934e-17 
7854.50 5.7426e-17 
7856.00 5.8099e-17 
7857.50 5.6959e-17 
7859.00 5.8037e-17 
7860.50 5.7796e-17 
7862.00 5.6321e-17 
7863.50 5.6268e-17 
7865.00 5.7700e-17 
7866.50 5.7032e-17 
7868.00 5.6216e-17 
7869.50 5.7123e-17 
7871.00 5.8399e-17 
7872.50 5.7571e-17 
7874.00 5.5741e-17 
7875.50 5.4751e-17 
7877.00 5.6249e-17 
7878.50 5.4461e-17 
7880.00 5.5234e-17 
7881.50 5.5137e-17 
7883.00 5.4457e-17 
7884.50 5.4312e-17 
7886.00 5.3836e-17 
7887.50 5.4510e-17 
7889.00 5.6176e-17 
7890.50 5.3880e-17 
7892.00 5.6316e-17 
7893.50 5.4210e-17 
7895.00 5.2786e-17 
7896.50 5.3466e-17 
7898.00 5.2098e-17 
7899.50 5.3435e-17 
7901.00 5.4641e-17 
7902.50 5.5013e-17 
7904.00 5.3364e-17 
7905.50 5.3488e-17 
7907.00 5.3473e-17 
7908.50 5.3715e-17 
7910.00 5.3570e-17 
7911.50 5.4050e-17 
7913.00 5.3882e-17 
7914.50 5.5448e-17 
7916.00 5.5418e-17 
7917.50 5.5569e-17 
7919.00 5.4963e-17 
7920.50 5.4181e-17 
7922.00 5.5455e-17 
7923.50 5.3873e-17 
7925.00 5.4342e-17 
7926.50 5.4085e-17 
7928.00 5.3353e-17 
7929.50 5.2445e-17 
7931.00 5.3801e-17 
7932.50 5.3566e-17 
7934.00 5.2560e-17 
7935.50 5.4218e-17 
7937.00 5.5253e-17 
7938.50 5.4217e-17 
7940.00 5.4646e-17 
7941.50 5.3368e-17 
7943.00 5.2566e-17 
7944.50 5.4098e-17 
7946.00 5.3420e-17 
7947.50 5.4218e-17 
7949.00 5.4709e-17 
7950.50 5.3417e-17 
7952.00 5.4265e-17 
7953.50 5.2951e-17 
7955.00 5.4984e-17 
7956.50 5.3606e-17 
7958.00 5.3985e-17 
7959.50 5.4548e-17 
7961.00 5.4148e-17 
7962.50 5.2643e-17 
7964.00 5.4869e-17 
7965.50 5.4407e-17 
7967.00 5.5113e-17 
7968.50 5.5043e-17 
7970.00 5.4144e-17 
7971.50 5.3864e-17 
7973.00 5.4231e-17 
7974.50 5.3990e-17 
7976.00 5.4232e-17 
7977.50 5.4031e-17 
7979.00 5.4810e-17 
7980.50 5.4923e-17 
7982.00 5.5260e-17 
7983.50 5.5957e-17 
7985.00 5.5734e-17 
7986.50 5.3717e-17 
7988.00 5.5073e-17 
7989.50 5.2747e-17 
7991.00 5.4032e-17 
7992.50 5.4050e-17 
7994.00 5.5173e-17 
7995.50 5.5908e-17 
7997.00 5.5914e-17 
7998.50 5.5603e-17 
8000.00 5.4446e-17 
8001.50 5.4251e-17 
8003.00 5.4166e-17 
8004.50 5.4328e-17 
8006.00 5.4031e-17 
8007.50 5.4265e-17 
8009.00 5.4851e-17 
8010.50 5.3880e-17 
8012.00 5.4365e-17 
8013.50 5.5588e-17 
8015.00 5.2187e-17 
8016.50 5.4675e-17 
8018.00 5.4638e-17 
8019.50 5.4756e-17 
8021.00 5.5925e-17 
8022.50 5.4911e-17 
8024.00 5.3948e-17 
8025.50 5.3224e-17 
8027.00 5.5935e-17 
8028.50 5.5350e-17 
8030.00 5.4458e-17 
8031.50 5.3663e-17 
8033.00 5.2805e-17 
8034.50 5.3997e-17 
8036.00 5.3994e-17 
8037.50 5.4898e-17 
8039.00 5.2624e-17 
8040.50 5.4082e-17 
8042.00 5.3966e-17 
8043.50 5.4480e-17 
8045.00 5.3908e-17 
8046.50 5.4227e-17 
8048.00 5.4566e-17 
8049.50 5.3945e-17 
8051.00 5.4527e-17 
8052.50 5.2986e-17 
8054.00 5.3530e-17 
8055.50 5.4521e-17 
8057.00 5.3300e-17 
8058.50 5.2908e-17 
8060.00 5.3903e-17 
8061.50 5.3878e-17 
8063.00 5.4281e-17 
8064.50 5.4544e-17 
8066.00 5.3675e-17 
8067.50 5.3958e-17 
8069.00 5.3539e-17 
8070.50 5.2536e-17 
8072.00 5.2473e-17 
8073.50 5.2690e-17 
8075.00 5.3899e-17 
8076.50 5.2787e-17 
8078.00 5.3724e-17 
8079.50 5.2770e-17 
8081.00 5.4701e-17 
8082.50 5.2826e-17 
8084.00 5.3148e-17 
8085.50 5.2298e-17 
8087.00 5.2104e-17 
8088.50 5.2761e-17 
8090.00 5.2503e-17 
8091.50 5.2825e-17 
8093.00 5.4143e-17 
8094.50 5.2428e-17 
8096.00 5.2992e-17 
8097.50 5.2442e-17 
8099.00 5.2057e-17 
8100.50 5.3403e-17 
8102.00 5.2372e-17 
8103.50 5.4384e-17 
8105.00 5.4535e-17 
8106.50 5.2637e-17 
8108.00 5.2366e-17 
8109.50 5.3757e-17 
8111.00 5.3151e-17 
8112.50 5.1965e-17 
8114.00 5.2129e-17 
8115.50 5.1028e-17 
8117.00 5.1988e-17 
8118.50 5.1769e-17 
8120.00 5.1021e-17 
8121.50 4.9946e-17 
8123.00 5.0157e-17 
8124.50 5.2578e-17 
8126.00 5.3528e-17 
8127.50 5.1498e-17 
8129.00 5.1504e-17 
8130.50 5.2458e-17 
8132.00 5.1164e-17 
8133.50 5.0117e-17 
8135.00 5.0414e-17 
8136.50 4.8264e-17 
8138.00 4.8438e-17 
8139.50 5.1189e-17 
8141.00 5.0192e-17 
8142.50 4.9360e-17 
8144.00 5.0193e-17 
8145.50 4.9018e-17 
8147.00 4.9711e-17 
8148.50 5.0169e-17 
8150.00 4.9017e-17 
8151.50 4.7701e-17 
8153.00 4.8223e-17 
8154.50 4.9794e-17 
8156.00 4.7811e-17 
8157.50 4.7445e-17 
8159.00 4.8341e-17 
8160.50 4.7501e-17 
8162.00 4.7221e-17 
8163.50 4.5640e-17 
8165.00 4.4001e-17 
8166.50 4.3803e-17 
8168.00 4.6120e-17 
8169.50 4.6089e-17 
8171.00 4.5390e-17 
8172.50 4.4783e-17 
8174.00 4.6351e-17 
8175.50 4.7490e-17 
8177.00 4.9368e-17 
8178.50 4.5391e-17 
8180.00 4.3470e-17 
8181.50 4.4640e-17 
8183.00 4.6464e-17 
8184.50 4.7536e-17 
8186.00 4.7864e-17 
8187.50 4.8275e-17 
8189.00 4.9714e-17 
8190.50 4.8678e-17 
8192.00 4.7059e-17 
8193.50 4.7680e-17 
8195.00 4.7592e-17 
8196.50 4.9171e-17 
8198.00 4.8662e-17 
8199.50 4.9661e-17 
8201.00 4.6165e-17 
8202.50 4.7032e-17 
8204.00 4.9552e-17 
8205.50 5.0143e-17 
8207.00 5.1259e-17 
8208.50 5.0813e-17 
8210.00 4.9374e-17 
8211.50 5.1090e-17 
8213.00 4.9415e-17 
8214.50 5.0259e-17 
8216.00 5.0167e-17 
8217.50 5.0954e-17 
8219.00 4.9575e-17 
8220.50 4.7684e-17 
8222.00 4.8516e-17 
8223.50 4.8667e-17 
8225.00 4.8759e-17 
8226.50 4.5953e-17 
8228.00 4.4253e-17 
8229.50 3.9807e-17 
8231.00 3.9899e-17 
8232.50 3.9518e-17 
8234.00 4.1680e-17 
8235.50 4.2586e-17 
8237.00 4.6477e-17 
8238.50 4.7648e-17 
8240.00 4.7982e-17 
8241.50 4.7755e-17 
8243.00 4.7781e-17 
8244.50 4.6271e-17 
8246.00 4.6469e-17 
8247.50 4.5803e-17 
8249.00 4.9347e-17 
8250.50 4.8957e-17 
8252.00 4.8072e-17 
8253.50 4.8752e-17 
8255.00 4.8205e-17 
8256.50 4.9058e-17 
8258.00 4.7262e-17 
8259.50 4.5804e-17 
8261.00 4.6012e-17 
8262.50 4.7071e-17 
8264.00 4.6693e-17 
8265.50 4.7780e-17 
8267.00 4.7723e-17 
8268.50 4.7012e-17 
8270.00 4.6858e-17 
8271.50 4.7361e-17 
8273.00 4.8494e-17 
8274.50 4.5625e-17 
8276.00 4.5768e-17 
8277.50 4.4456e-17 
8279.00 4.4966e-17 
8280.50 4.7162e-17 
8282.00 4.6109e-17 
8283.50 4.3297e-17 
8285.00 4.4955e-17 
8286.50 4.5514e-17 
8288.00 4.8332e-17 
8289.50 4.6569e-17 
8291.00 4.4949e-17 
8292.50 4.5776e-17 
8294.00 4.5763e-17 
8295.50 4.4292e-17 
8297.00 4.5443e-17 
8298.50 4.3890e-17 
8300.00 4.6456e-17 
8301.50 4.4142e-17 
8303.00 4.4254e-17 
8304.50 4.6167e-17 
8306.00 4.4777e-17 
8307.50 4.4094e-17 
8309.00 4.4360e-17 
8310.50 4.5691e-17 
8312.00 4.5956e-17 
8313.50 4.4491e-17 
8315.00 4.6439e-17 
8316.50 4.6825e-17 
8318.00 4.5335e-17 
8319.50 4.4215e-17 
8321.00 4.3599e-17 
8322.50 4.2716e-17 
8324.00 4.3009e-17 
8325.50 4.4852e-17 
8327.00 4.5620e-17 
8328.50 4.7228e-17 
8330.00 4.5933e-17 
8331.50 4.4851e-17 
8333.00 4.5148e-17 
8334.50 4.5065e-17 
8336.00 4.4555e-17 
8337.50 4.4088e-17 
8339.00 4.5562e-17 
8340.50 4.4797e-17 
8342.00 4.4915e-17 
8343.50 4.2927e-17 
8345.00 4.5985e-17 
8346.50 4.8281e-17 
8348.00 4.6244e-17 
8349.50 4.6587e-17 
8351.00 4.7472e-17 
8352.50 4.3375e-17 
8354.00 4.6920e-17 
8355.50 4.5479e-17 
8357.00 4.3961e-17 
8358.50 4.4991e-17 
8360.00 4.4640e-17 
8361.50 4.5610e-17 
8363.00 4.6197e-17 
8364.50 4.4404e-17 
8366.00 4.5721e-17 
8367.50 4.6100e-17 
8369.00 4.6642e-17 
8370.50 4.5049e-17 
8372.00 4.5040e-17 
8373.50 4.4763e-17 
8375.00 4.4568e-17 
8376.50 4.5630e-17 
8378.00 4.4364e-17 
8379.50 4.5928e-17 
8381.00 4.4042e-17 
8382.50 4.6726e-17 
8384.00 4.5553e-17 
8385.50 4.4144e-17 
8387.00 4.6253e-17 
8388.50 4.5265e-17 
8390.00 4.6363e-17 
8391.50 4.4952e-17 
8393.00 4.5718e-17 
8394.50 4.6541e-17 
8396.00 4.4871e-17 
8397.50 4.6732e-17 
8399.00 4.5138e-17 
8400.50 4.8358e-17 
8402.00 4.5541e-17 
8403.50 4.7541e-17 
8405.00 4.5847e-17 
8406.50 4.5824e-17 
8408.00 4.5752e-17 
8409.50 4.5195e-17 
8411.00 4.6565e-17 
8412.50 4.6901e-17 
8414.00 4.6274e-17 
8415.50 4.7181e-17 
8417.00 4.6770e-17 
8418.50 4.5843e-17 
8420.00 4.5818e-17 
8421.50 4.5902e-17 
8423.00 4.6407e-17 
8424.50 4.5404e-17 
8426.00 4.5039e-17 
8427.50 4.6022e-17 
8429.00 4.7607e-17 
8430.50 4.5304e-17 
8432.00 4.7450e-17 
8433.50 4.6080e-17 
8435.00 4.5141e-17 
8436.50 4.6607e-17 
8438.00 4.5101e-17 
8439.50 4.5527e-17 
8441.00 4.5131e-17 
8442.50 4.5747e-17 
8444.00 4.7122e-17 
8445.50 4.4507e-17 
8447.00 4.6904e-17 
8448.50 4.6336e-17 
8450.00 4.6663e-17 
8451.50 4.5493e-17 
8453.00 4.8023e-17 
8454.50 4.7651e-17 
8456.00 4.5687e-17 
8457.50 4.4215e-17 
8459.00 4.6371e-17 
8460.50 4.6294e-17 
8462.00 4.7965e-17 
8463.50 4.7121e-17 
8465.00 4.5359e-17 
8466.50 4.7684e-17 
8468.00 4.6761e-17 
8469.50 4.8674e-17 
8471.00 4.7602e-17 
8472.50 4.6578e-17 
8474.00 4.5734e-17 
8475.50 4.5400e-17 
8477.00 4.6342e-17 
8478.50 4.6791e-17 
8480.00 4.5677e-17 
8481.50 4.7615e-17 
8483.00 4.5425e-17 
8484.50 4.6179e-17 
8486.00 4.6332e-17 
8487.50 4.6536e-17 
8489.00 4.7077e-17 
8490.50 4.6317e-17 
8492.00 4.5887e-17 
8493.50 5.0088e-17 
8495.00 4.8846e-17 
8496.50 4.8013e-17 
8498.00 4.7077e-17 
8499.50 4.6870e-17 
8501.00 4.6626e-17 
8502.50 4.4952e-17 
8504.00 4.5123e-17 
8505.50 4.6264e-17 
8507.00 4.6821e-17 
8508.50 4.4333e-17 
8510.00 4.6572e-17 
8511.50 4.6627e-17 
8513.00 4.5382e-17 
8514.50 4.5627e-17 
8516.00 4.5862e-17 
8517.50 4.4996e-17 
8519.00 4.4925e-17 
8520.50 4.5449e-17 
8522.00 4.4357e-17 
8523.50 4.6254e-17 
8525.00 4.6027e-17 
8526.50 4.6190e-17 
8528.00 4.5091e-17 
8529.50 4.5658e-17 
8531.00 4.5583e-17 
8532.50 4.5152e-17 
8534.00 4.5932e-17 
8535.50 4.7182e-17 
8537.00 4.5236e-17 
8538.50 4.4139e-17 
8540.00 4.5222e-17 
8541.50 4.5607e-17 
8543.00 4.6431e-17 
8544.50 4.5835e-17 
8546.00 4.5413e-17 
8547.50 4.7100e-17 
8549.00 4.6615e-17 
8550.50 4.6185e-17 
8552.00 4.5351e-17 
8553.50 4.5779e-17 
8555.00 4.6784e-17 
8556.50 4.4259e-17 
8558.00 4.2911e-17 
8559.50 4.5426e-17 
8561.00 4.4927e-17 
8562.50 4.4162e-17 
8564.00 4.5207e-17 
8565.50 4.4764e-17 
8567.00 4.4635e-17 
8568.50 4.4418e-17 
8570.00 4.4544e-17 
8571.50 4.4550e-17 
8573.00 4.3240e-17 
8574.50 4.3841e-17 
8576.00 4.3126e-17 
8577.50 4.5461e-17 
8579.00 4.4508e-17 
8580.50 4.4601e-17 
8582.00 4.4006e-17 
8583.50 4.4195e-17 
8585.00 4.3772e-17 
8586.50 4.3176e-17 
8588.00 4.2411e-17 
8589.50 4.2154e-17 
8591.00 4.2595e-17 
8592.50 4.2847e-17 
8594.00 4.3613e-17 
8595.50 4.2860e-17 
8597.00 4.3003e-17 
8598.50 4.3820e-17 
8600.00 4.2878e-17 
8601.50 4.2342e-17 
8603.00 4.3692e-17 
8604.50 4.3060e-17 
8606.00 4.3850e-17 
8607.50 4.2547e-17 
8609.00 4.3400e-17 
8610.50 4.2865e-17 
8612.00 4.3548e-17 
8613.50 4.3163e-17 
8615.00 4.3464e-17 
8616.50 4.2461e-17 
8618.00 4.1136e-17 
8619.50 4.4094e-17 
8621.00 4.1990e-17 
8622.50 4.3143e-17 
8624.00 4.2180e-17 
8625.50 4.3579e-17 
8627.00 4.3770e-17 
8628.50 4.2464e-17 
8630.00 4.2262e-17 
8631.50 4.2590e-17 
8633.00 4.0173e-17 
8634.50 4.1176e-17 
8636.00 4.0587e-17 
8637.50 4.2536e-17 
8639.00 4.2423e-17 
8640.50 4.3720e-17 
8642.00 4.2577e-17 
8643.50 4.2668e-17 
8645.00 4.2558e-17 
8646.50 4.3590e-17 
8648.00 4.2865e-17 
8649.50 4.3984e-17 
8651.00 4.1936e-17 
8652.50 4.3264e-17 
8654.00 4.1818e-17 
8655.50 4.3711e-17 
8657.00 4.3511e-17 
8658.50 4.3979e-17 
8660.00 4.2791e-17 
8661.50 4.3200e-17 
8663.00 4.1517e-17 
8664.50 4.2681e-17 
8666.00 4.4068e-17 
8667.50 4.3657e-17 
8669.00 4.3740e-17 
8670.50 4.1694e-17 
8672.00 4.4011e-17 
8673.50 4.2081e-17 
8675.00 4.3117e-17 
8676.50 4.1816e-17 
8678.00 4.2064e-17 
8679.50 4.2995e-17 
8681.00 4.2990e-17 
8682.50 4.2373e-17 
8684.00 4.2774e-17 
8685.50 4.2454e-17 
8687.00 4.2717e-17 
8688.50 4.4395e-17 
8690.00 4.4029e-17 
8691.50 4.3804e-17 
8693.00 4.3930e-17 
8694.50 4.3671e-17 
8696.00 4.3461e-17 
8697.50 4.3693e-17 
8699.00 4.3443e-17 
8700.50 4.3494e-17 
8702.00 4.3484e-17 
8703.50 4.4125e-17 
8705.00 4.3770e-17 
8706.50 4.3942e-17 
8708.00 4.4980e-17 
8709.50 4.3920e-17 
8711.00 4.5095e-17 
8712.50 4.4114e-17 
8714.00 4.3757e-17 
8715.50 4.3737e-17 
8717.00 4.3074e-17 
8718.50 4.3714e-17 
8720.00 4.3162e-17 
8721.50 4.2446e-17 
8723.00 4.3021e-17 
8724.50 4.2833e-17 
8726.00 4.2867e-17 
8727.50 4.1282e-17 
8729.00 4.1766e-17 
8730.50 4.3662e-17 
8732.00 4.2505e-17 
8733.50 4.3289e-17 
8735.00 4.4892e-17 
8736.50 4.2691e-17 
8738.00 4.3994e-17 
8739.50 4.3715e-17 
8741.00 4.5413e-17 
8742.50 4.3481e-17 
8744.00 4.2201e-17 
8745.50 4.2018e-17 
8747.00 4.2484e-17 
8748.50 4.3114e-17 
8750.00 4.2492e-17 
8751.50 4.2945e-17 
8753.00 4.2174e-17 
8754.50 4.3013e-17 
8756.00 4.4191e-17 
8757.50 4.4259e-17 
8759.00 4.4363e-17 
8760.50 4.3780e-17 
8762.00 4.4534e-17 
8763.50 4.3135e-17 
8765.00 4.3667e-17 
8766.50 4.3219e-17 
8768.00 4.4218e-17 
8769.50 4.4490e-17 
8771.00 4.3778e-17 
8772.50 4.7173e-17 
8774.00 4.4179e-17 
8775.50 4.3898e-17 
8777.00 4.2202e-17 
8778.50 4.2011e-17 
8780.00 4.4945e-17 
8781.50 4.5374e-17 
8783.00 4.3926e-17 
8784.50 4.2409e-17 
8786.00 4.3503e-17 
8787.50 4.3818e-17 
8789.00 4.3293e-17 
8790.50 4.3957e-17 
8792.00 4.4352e-17 
8793.50 4.4354e-17 
8795.00 4.4958e-17 
8796.50 4.3827e-17 
8798.00 4.4493e-17 
8799.50 4.4542e-17 
8801.00 4.4944e-17 
8802.50 4.3758e-17 
8804.00 4.3799e-17 
8805.50 4.3518e-17 
8807.00 4.6165e-17 
8808.50 4.3139e-17 
8810.00 4.4332e-17 
8811.50 4.4263e-17 
8813.00 4.6667e-17 
8814.50 4.5792e-17 
8816.00 4.5053e-17 
8817.50 4.7042e-17 
8819.00 4.6558e-17 
8820.50 4.4775e-17 
8822.00 4.3526e-17 
8823.50 4.4819e-17 
8825.00 4.3256e-17 
8826.50 4.4116e-17 
8828.00 4.3138e-17 
8829.50 4.9391e-17 
8831.00 4.7161e-17 
8832.50 4.4948e-17 
8834.00 4.6827e-17 
8835.50 4.3509e-17 
8837.00 4.5326e-17 
8838.50 4.7640e-17 
8840.00 4.7676e-17 
8841.50 4.6480e-17 
8843.00 4.5934e-17 
8844.50 4.4648e-17 
8846.00 4.4794e-17 
8847.50 4.5807e-17 
8849.00 4.4131e-17 
8850.50 4.8088e-17 
8852.00 4.6838e-17 
8853.50 4.6233e-17 
8855.00 4.7209e-17 
8856.50 4.5990e-17 
8858.00 4.5772e-17 
8859.50 4.7035e-17 
8861.00 4.4459e-17 
8862.50 4.5996e-17 
8864.00 4.6132e-17 
8865.50 4.5491e-17 
8867.00 4.7339e-17 
8868.50 4.6513e-17 
8870.00 4.5539e-17 
8871.50 4.5074e-17 
8873.00 4.5607e-17 
8874.50 4.6273e-17 
8876.00 4.6474e-17 
8877.50 4.6280e-17 
8879.00 4.5913e-17 
8880.50 4.5867e-17 
8882.00 4.6246e-17 
8883.50 4.7591e-17 
8885.00 4.4222e-17 
8886.50 4.5901e-17 
8888.00 4.6089e-17 
8889.50 4.7961e-17 
8891.00 4.7939e-17 
8892.50 4.7769e-17 
8894.00 4.6057e-17 
8895.50 4.6432e-17 
8897.00 4.6713e-17 
8898.50 4.6760e-17 
8900.00 4.7106e-17 
8901.50 4.6985e-17 
8903.00 4.6698e-17 
8904.50 4.6618e-17 
8906.00 4.9514e-17 
8907.50 4.7745e-17 
8909.00 4.6719e-17 
8910.50 4.7207e-17 
8912.00 4.7876e-17 
8913.50 4.7446e-17 
8915.00 4.7586e-17 
8916.50 4.7324e-17 
8918.00 4.7355e-17 
8919.50 4.8497e-17 
8921.00 4.5855e-17 
8922.50 4.6518e-17 
8924.00 4.5382e-17 
8925.50 4.9863e-17 
8927.00 4.7518e-17 
8928.50 4.6931e-17 
8930.00 4.6605e-17 
8931.50 4.6761e-17 
8933.00 4.8449e-17 
8934.50 4.6874e-17 
8936.00 4.8120e-17 
8937.50 4.7918e-17 
8939.00 4.7028e-17 
8940.50 4.7670e-17 
8942.00 4.7887e-17 
8943.50 4.9597e-17 
8945.00 4.7179e-17 
8946.50 4.7658e-17 
8948.00 4.7250e-17 
8949.50 4.5855e-17 
8951.00 4.6905e-17 
8952.50 4.4989e-17 
8954.00 4.7096e-17 
8955.50 4.4406e-17 
8957.00 4.7636e-17 
8958.50 4.8597e-17 
8960.00 4.9215e-17 
8961.50 4.6569e-17 
8963.00 4.6982e-17 
8964.50 4.6535e-17 
8966.00 4.3762e-17 
8967.50 4.4206e-17 
8969.00 4.4090e-17 
8970.50 4.4990e-17 
8972.00 4.6331e-17 
8973.50 4.7217e-17 
8975.00 4.4987e-17 
8976.50 4.6107e-17 
8978.00 4.6692e-17 
8979.50 4.5715e-17 
8981.00 4.7175e-17 
8982.50 4.6443e-17 
8984.00 4.3993e-17 
8985.50 4.6050e-17 
8987.00 4.6326e-17 
8988.50 4.2296e-17 
8990.00 3.9395e-17 
8991.50 3.7629e-17 
8993.00 3.8239e-17 
8994.50 3.9135e-17 
8996.00 4.0899e-17 
8997.50 4.5603e-17 
8999.00 4.6921e-17 
9000.50 4.5836e-17 
9002.00 4.7681e-17 
9003.50 4.3628e-17 
9005.00 4.4316e-17 
9006.50 4.2508e-17 
9008.00 4.3996e-17 
9009.50 4.4666e-17 
9011.00 4.5965e-17 
9012.50 4.5576e-17 
9014.00 4.4446e-17 
9015.50 4.5290e-17 
9017.00 4.5854e-17 
9018.50 4.4453e-17 
9020.00 4.3058e-17 
9021.50 4.4287e-17 
9023.00 4.6814e-17 
9024.50 4.5834e-17 
9026.00 4.5339e-17 
9027.50 4.4022e-17 
9029.00 4.4162e-17 
9030.50 4.6425e-17 
9032.00 4.7213e-17 
9033.50 5.0090e-17 
9035.00 4.7516e-17 
9036.50 5.0774e-17 
9038.00 5.1671e-17 
9039.50 4.9935e-17 
9041.00 4.9534e-17 
9042.50 5.0991e-17 
9044.00 4.8136e-17 
9045.50 4.7461e-17 
9047.00 4.7614e-17 
9048.50 4.8921e-17 
9050.00 4.8679e-17 
9051.50 4.9163e-17 
9053.00 4.7670e-17 
9054.50 4.7151e-17 
9056.00 4.6471e-17 
9057.50 4.4544e-17 
9059.00 4.8983e-17 
9060.50 4.7025e-17 
9062.00 4.7706e-17 
9063.50 4.6534e-17 
9065.00 4.5302e-17 
9066.50 4.5684e-17 
9068.00 4.4466e-17 
9069.50 4.6486e-17 
9071.00 4.5250e-17 
9072.50 4.2673e-17 
9074.00 4.0993e-17 
9075.50 4.2919e-17 
9077.00 4.3841e-17 
9078.50 4.3344e-17 
9080.00 4.4700e-17 
9081.50 4.1815e-17 
9083.00 4.1041e-17 
9084.50 3.9538e-17 
9086.00 4.4456e-17 
9087.50 4.1757e-17 
9089.00 4.1367e-17 
9090.50 4.0415e-17 
9092.00 4.2516e-17 
9093.50 4.4449e-17 
9095.00 4.3601e-17 
9096.50 4.2883e-17 
9098.00 4.2632e-17 
9099.50 4.2417e-17 
9101.00 4.2178e-17 
9102.50 4.0250e-17 
9104.00 4.0367e-17 
9105.50 4.2442e-17 
9107.00 4.0529e-17 
9108.50 4.1791e-17 
9110.00 3.9140e-17 
9111.50 4.0918e-17 
9113.00 4.3835e-17 
9114.50 4.5091e-17 
9116.00 4.4513e-17 
9117.50 4.4672e-17 
9119.00 4.1871e-17 
9120.50 4.0531e-17 
9122.00 3.8975e-17 
9123.50 4.1433e-17 
9125.00 4.3642e-17 
9126.50 4.2051e-17 
9128.00 4.3581e-17 
9129.50 4.3737e-17 
9131.00 4.0262e-17 
9132.50 3.8501e-17 
9134.00 3.6173e-17 
9135.50 3.9972e-17 
9137.00 3.9559e-17 
9138.50 3.6114e-17 
9140.00 3.6951e-17 
9141.50 3.9402e-17 
9143.00 4.2092e-17 
9144.50 4.1383e-17 
9146.00 4.4198e-17 
9147.50 4.1275e-17 
9149.00 4.1266e-17 
9150.50 4.0815e-17 
9152.00 4.2587e-17 
9153.50 3.8660e-17 
9155.00 3.6922e-17 
9156.50 3.5160e-17 
9158.00 3.6046e-17 
9159.50 3.4501e-17 
9161.00 3.9341e-17 
9162.50 4.1136e-17 
9164.00 4.1223e-17 
9165.50 4.0185e-17 
9167.00 4.1736e-17 
9168.50 4.0104e-17 
9170.00 4.1130e-17 
9171.50 4.0861e-17 
9173.00 3.9117e-17 
9174.50 4.0056e-17 
9176.00 3.6528e-17 
9177.50 3.6658e-17 
9179.00 3.7827e-17 
9180.50 3.9375e-17 
9182.00 4.0494e-17 
9183.50 4.1906e-17 
9185.00 4.0996e-17 
9186.50 3.8501e-17 
9188.00 4.1320e-17 
9189.50 4.2220e-17 
9191.00 4.3955e-17 
9192.50 4.2306e-17 
9194.00 4.1440e-17 
9195.50 4.0873e-17 
9197.00 3.9133e-17 
9198.50 4.0453e-17 
9200.00 4.0119e-17 
9201.50 4.2854e-17 
9203.00 4.5104e-17 
9204.50 4.2708e-17 
9206.00 4.3785e-17 
9207.50 4.0876e-17 
9209.00 4.2736e-17 
9210.50 4.2573e-17 
9212.00 4.1296e-17 
9213.50 4.0727e-17 
9215.00 3.9995e-17 
9216.50 4.0926e-17 
9218.00 4.0512e-17 
9219.50 3.8418e-17 
9221.00 3.9005e-17 
9222.50 4.0130e-17 
9224.00 4.1953e-17 
9225.50 4.1184e-17 
9227.00 4.1940e-17 
9228.50 4.3048e-17 
9230.00 4.0955e-17 
9231.50 4.1801e-17 
9233.00 4.0020e-17 
9234.50 4.1060e-17 
9236.00 4.0499e-17 
9237.50 4.0329e-17 
9239.00 4.0859e-17 
9240.50 4.1027e-17 
9242.00 3.9533e-17 
9243.50 4.1009e-17 
9245.00 4.1908e-17 
9246.50 4.0447e-17 
9248.00 4.0928e-17 
9249.50 4.0205e-17 
9251.00 4.0170e-17 
9252.50 4.0334e-17 
9254.00 3.9683e-17 
9255.50 3.9234e-17 
9257.00 4.0667e-17 
9258.50 4.0625e-17 
9260.00 4.1273e-17 
9261.50 4.0722e-17 
9263.00 4.0754e-17 
9264.50 4.0326e-17 
9266.00 4.0895e-17 
9267.50 4.2827e-17 
9269.00 4.2369e-17 
9270.50 4.4173e-17 
9272.00 4.1935e-17 
9273.50 4.0584e-17 
9275.00 3.9777e-17 
9276.50 4.0665e-17 
9278.00 3.9357e-17 
9279.50 3.8361e-17 
9281.00 3.7523e-17 
9282.50 3.7708e-17 
9284.00 3.8954e-17 
9285.50 3.9216e-17 
9287.00 3.9232e-17 
9288.50 3.6909e-17 
9290.00 3.7590e-17 
9291.50 3.9092e-17 
9293.00 3.8157e-17 
9294.50 4.0071e-17 
9296.00 3.6875e-17 
9297.50 3.7231e-17 
9299.00 3.3959e-17 
9300.50 3.4185e-17 
9302.00 3.5893e-17 
9303.50 3.5139e-17 
9305.00 3.4127e-17 
9306.50 3.7203e-17 
9308.00 3.4845e-17 
9309.50 3.3064e-17 
9311.00 3.2630e-17 
9312.50 3.0339e-17 
9314.00 3.5679e-17 
9315.50 3.5236e-17 
9317.00 3.4741e-17 
9318.50 2.7398e-17 
9320.00 2.5617e-17 
9321.50 2.8137e-17 
9323.00 3.1236e-17 
9324.50 3.0073e-17 
9326.00 2.9065e-17 
9327.50 2.2757e-17 
9329.00 2.7807e-17 
9330.50 2.8632e-17 
9332.00 3.1724e-17 
9333.50 3.3378e-17 
9335.00 3.0157e-17 
9336.50 2.6562e-17 
9338.00 2.1946e-17 
9339.50 2.4872e-17 
9341.00 2.6741e-17 
9342.50 2.7094e-17 
9344.00 2.4371e-17 
9345.50 1.8895e-17 
9347.00 1.7947e-17 
9348.50 2.0041e-17 
9350.00 2.8444e-17 
9351.50 3.2994e-17 
9353.00 3.7031e-17 
9354.50 3.3240e-17 
9356.00 2.6710e-17 
9357.50 2.2805e-17 
9359.00 2.0998e-17 
9360.50 2.3065e-17 
9362.00 2.6710e-17 
9363.50 3.1588e-17 
9365.00 3.4153e-17 
9366.50 3.2308e-17 
9368.00 3.0199e-17 
9369.50 2.7040e-17 
9371.00 2.7052e-17 
9372.50 2.5296e-17 
9374.00 2.2458e-17 
9375.50 2.7507e-17 
9377.00 3.5663e-17 
9378.50 3.4695e-17 
9380.00 2.8010e-17 
9381.50 2.6335e-17 
9383.00 2.5340e-17 
9384.50 2.5424e-17 
9386.00 2.8971e-17 
9387.50 3.5188e-17 
9389.00 3.3086e-17 
9390.50 3.3148e-17 
9392.00 3.6530e-17 
9393.50 4.0249e-17 
9395.00 4.2065e-17 
9396.50 4.3193e-17 
9398.00 4.1657e-17 
9399.50 4.1894e-17 
9401.00 3.9708e-17 
9402.50 3.5975e-17 
9404.00 3.5709e-17 
9405.50 3.9466e-17 
9407.00 3.9237e-17 
9408.50 4.0471e-17 
9410.00 4.0584e-17 
9411.50 3.6203e-17 
9413.00 3.3959e-17 
9414.50 3.4662e-17 
9416.00 3.9134e-17 
9417.50 4.0817e-17 
9419.00 3.9326e-17 
9420.50 3.3949e-17 
9422.00 3.7924e-17 
9423.50 3.7404e-17 
9425.00 3.8902e-17 
9426.50 3.7966e-17 
9428.00 3.3622e-17 
9429.50 2.6393e-17 
9431.00 2.2462e-17 
9432.50 2.2332e-17 
9434.00 3.0751e-17 
9435.50 3.8620e-17 
9437.00 4.0434e-17 
9438.50 3.9418e-17 
9440.00 3.2145e-17 
9441.50 3.0181e-17 
9443.00 2.5596e-17 
9444.50 2.0492e-17 
9446.00 2.5358e-17 
9447.50 2.9219e-17 
9449.00 3.5433e-17 
9450.50 3.6516e-17 
9452.00 4.0956e-17 
9453.50 3.7340e-17 
9455.00 3.4654e-17 
9456.50 3.4424e-17 
9458.00 2.6831e-17 
9459.50 2.8629e-17 
9461.00 2.8292e-17 
9462.50 2.9491e-17 
9464.00 2.6289e-17 
9465.50 3.1987e-17 
9467.00 3.7355e-17 
9468.50 3.5988e-17 
9470.00 3.6211e-17 
9471.50 3.2759e-17 
9473.00 3.2473e-17 
9474.50 3.6548e-17 
9476.00 3.3080e-17 
9477.50 3.1805e-17 
9479.00 3.2284e-17 
9480.50 3.5681e-17 
9482.00 3.1781e-17 
9483.50 2.5361e-17 
9485.00 2.5226e-17 
9486.50 3.0227e-17 
9488.00 3.6767e-17 
9489.50 3.8074e-17 
9491.00 3.9906e-17 
9492.50 4.0414e-17 
9494.00 3.9266e-17 
9495.50 3.2986e-17 
9497.00 2.9159e-17 
9498.50 2.6450e-17 
